File: Texture/XRD/Input/x240.dat
# time [pico sec]
960
# dry density [g/cm^3], porosity [%]
1.393941 43.5194
#Xa[1:2]
0.000000e+00 0.000000e+00
#Wd[1:4]
75.2 75.2 0.0000000000000000e+00 0.0000000000000000e+00
#np
3194
# irev[1:2] x1   x2    v1   v2
0 0 15.005 39.205 0.186743 0.132333 1.77 1.77
0 0 16.4456 35.4876 0.0630941 0.0137571 1.62 1.74
0 0 15.6669 31.5697 0.12162 -0.0155075 1.35 1.74
0 0 17.6307 28.7089 0.206906 -0.0844132 1.14 1.17
0 0 19.627 31.8693 -0.0947814 0.0899068 1.53 0.93
0 0 19.6952 35.8638 -0.109945 0.0683657 1.59 1.2
0 0 21.9994 39.0581 -0.225495 0.224253 1.62 1.05
0 0 25.2015 41.4505 -0.0699224 0.123134 1.47 0.96
0 0 28.3696 43.8875 -0.0794145 0.156908 1.14 1.11
0 0 31.6067 46.238 -0.0380316 -0.0128688 1.14 1.02
0 0 34.557 48.9316 -0.0551644 -0.0259775 0.93 1.14
0 0 36.623 52.3436 0.145653 -0.0298304 1.53 1.26
0 0 46.4276 65.2208 -0.0446935 0.0838353 1.77 1.77
0 0 49.0279 62.1941 -0.098905 0.0665188 1.77 1.77
0 0 50.294 58.441 0.104598 0.126221 1.38 1.74
0 0 50.9838 54.5203 0.0521253 0.131523 1.41 1.65
0 0 52.5956 50.8682 -0.14389 -0.0257464 1.08 1.77
0 0 55.6923 48.3836 -0.0732601 -0.128057 0.93 1.47
0 0 59.5334 47.6191 -0.0267961 -0.0404961 1.26 1.56
0 0 62.894 49.7118 0.115043 -0.178325 0.93 1.05
0 0 65.3231 52.8348 0.0551725 -0.0596075 1.02 0.99
0 0 65.4213 56.8198 0.18377 -0.0286507 0.99 1.38
1 0 3.79137 17.5001 0.152105 0.101589 0.96 0.99
1 0 0.114141 15.9809 -9.12697e-05 0.257743 1.44 1.08
0 0 71.8511 14.022 0.145622 0.140996 1.47 1.38
0 0 68.3331 15.383 -0.155118 -0.235777 1.23 1.5
0 0 67.7794 19.2412 0.160041 -0.152125 1.02 1.62
0 0 70.5575 21.9071 0.0129774 -0.133494 1.74 1.62
0 0 74.54 22.1342 0.117035 -0.179771 1.56 1.44
1 0 2.98322 23.3244 -0.238911 0.0493907 1.59 1.59
1 0 5.572 26.3299 0.0411566 -0.285509 1.44 1.65
1 0 7.34969 29.8931 -0.297742 -0.173046 1.56 1.71
1 0 8.48768 33.7199 0.152531 -0.253303 1.65 1.77
0 0 8.92119 39.9892 0.16114 -0.346366 1.77 1.77
0 0 12.8116 40.5739 -0.0237077 -0.189185 1.74 1.77
0 0 16.7963 40.6146 -0.0442056 0.0593561 1.77 1.77
0 0 20.5119 41.9203 0.0684839 -0.168204 1.71 1.74
0 0 23.8498 44.1187 -0.00849145 0.118943 1.47 1.62
0 0 27.0143 46.5551 -0.112914 0.261537 1.71 1.47
0 0 30.2782 48.8636 -0.166181 0.171201 1.71 1.62
0 0 33.099 51.6778 0.118799 -0.192159 1.74 1.71
1 0 2.58464 48.6628 0.0279605 0.311847 1.71 1.77
1 0 2.84261 52.6403 -0.127811 0.198361 1.59 1.77
1 0 2.76329 56.6314 -0.161648 0.0638051 1.44 1.53
1 0 1.59569 60.4627 -0.368297 -0.0521804 1.62 1.68
1 0 0.350891 64.0955 -0.0137273 0.217062 1.53 1.56
0 0 72.6784 66.7812 -0.0867289 0.211285 1.32 1.47
0 0 68.8881 67.8593 -0.183426 0.259878 1.65 1.77
0 0 65.0117 67.0245 -0.079926 0.0114283 1.56 1.74
0 0 62.41 63.9894 -0.217639 0.128268 1.71 1.71
0 0 60.9834 60.2918 -0.153507 -0.0173823 1.74 1.77
0 0 61.0974 56.3303 0.0610054 -0.0474846 1.77 1.77
0 0 17.1521 25.1882 0.122362 0.109768 1.74 1.77
0 0 20.114 22.5421 -0.17943 -0.110852 1.02 1.77
0 0 21.5358 18.8249 -0.244176 0.020249 0.99 1.77
0 0 21.345 14.8595 0.125016 0.0179684 1.14 1.77
0 0 19.7305 11.2152 0.0146937 0.0133668 1.11 1.77
0 0 16.2932 9.31022 0.0124071 0.296916 1.02 1.47
0 0 12.6287 10.629 0.0827588 0.157282 1.17 1.26
0 0 10.3097 13.8838 0.119607 0.120294 1.17 1.32
0 0 7.17455 16.1712 0.0746073 0.0995422 1.14 1.44
0 0 3.33788 16.1415 0.228452 0.155769 0.93 0.96
-1 0 74.9826 14.3441 0.0354617 0.537729 0.96 0.96
1 0 16.9057 6.58547 -0.00373031 -0.170796 0.99 1.29
1 0 13.0773 7.38849 -0.0620475 -0.164407 0.96 1.11
1 0 9.82277 9.67567 -0.014955 -0.0259603 1.02 1.41
1 0 6.07646 10.9236 -0.0170286 0.225653 0.96 1.77
1 0 2.1351 10.4032 -0.00179474 0.0696326 1.05 1.77
0 0 73.5057 9.24531 -0.127724 0.272592 1.23 1.77
0 0 69.5193 9.31498 -0.123643 -0.090645 1.77 1.77
0 0 66.1818 11.3742 -0.023982 0.0604582 1.77 1.77
0 0 64.1089 14.7812 0.276074 0.198178 1.77 1.77
0 0 26.7097 58.2601 0.0301976 -0.0319052 1.17 1.71
0 0 30.2632 59.9574 0.027545 -0.355678 1.23 1.71
0 0 34.25 60.0852 0.0628315 -0.183076 1.05 1.5
0 0 38.0883 61.1833 0.0865177 -0.0461486 1.05 1.26
0 0 42.0138 61.1249 0.0532301 0.0845013 1.14 1.17
0 0 45.5193 59.2231 0.0386056 0.0909826 1.56 1.14
0 0 48.3765 56.4363 0.0451059 0.0989912 1.38 1.47
0 0 49.7543 52.704 -0.0899978 -0.0106705 1.35 1.35
0 0 51.8864 49.3612 0.0424914 0.0534118 1.32 1.38
0 0 54.8721 46.7555 0.0299087 0.0411557 1.77 1.35
0 0 59.6364 26.2108 0.0344219 -0.128682 1.74 0.99
0 0 55.7399 27.0852 0.0171602 0.0430054 1.74 0.99
0 0 51.9159 28.2115 -0.0629861 0.173398 1.71 1.23
0 0 47.9564 28.7844 -0.103021 -0.000275785 1.77 1.71
0 0 44.5965 30.8785 -0.0850566 -0.167065 1.68 0.96
0 0 41.3493 33.211 0.109747 -0.0100067 1.74 1.38
0 0 39.3304 36.6406 0.169869 0.0561951 1.77 1.23
0 0 37.6939 40.2878 -0.209372 0.00700135 1.65 1.32
0 0 36.8968 44.1901 0.00674339 0.0962543 1.77 1.77
0 0 37.6881 48.1068 -0.0805206 0.0727465 1.77 1.74
0 -1 56.8962 74.3343 -0.0617513 0.03454 1.77 1.02
0 0 58.3336 2.8521 -0.141007 0.0379696 1.77 1.17
0 0 60.0829 6.43933 0.0625776 -0.0278804 1.62 1.02
0 0 60.8061 10.3644 0.185113 -0.0273621 1.68 1.26
0 0 60.8481 14.3247 -0.0130033 -0.0829198 1.77 1.11
0 0 58.053 17.0813 -0.151294 -0.340824 1.74 1.77
0 0 54.1543 17.2607 -0.0989344 -0.0683079 1.77 1.62
0 0 50.2329 16.6341 -0.166638 0.0520605 1.74 1.74
0 0 46.257 16.2712 -0.12509 0.173919 1.74 1.44
0 0 42.257 16.2097 -0.126456 -0.120273 1.74 1.71
0 0 38.2535 16.1835 -0.15279 0.0182339 1.74 1.65
0 0 34.4211 17.1067 -0.229328 0.0459306 1.77 1.77
0 0 66.3004 58.5909 0.0741017 -0.170435 1.53 1.17
0 0 66.0171 62.5086 -0.0937467 -0.132526 1.71 1.59
0 0 69.0411 64.8548 -0.119016 0.220298 1.32 1.53
0 0 72.807 63.7063 0.0042595 0.106676 1.2 1.35
0 0 74.7605 60.2389 -0.115739 -0.0999344 0.93 1.68
1 0 0.692037 56.4135 0.249276 0.128498 1.74 1.74
1 0 1.1205 52.4559 0.0635822 -0.113248 1.41 1.77
1 0 0.777694 48.481 0.0810185 -0.0835348 1.68 1.77
0 0 73.9609 45.1478 0.0535638 -0.129103 1.77 1.77
0 0 71.0816 42.375 -0.0913815 -0.155585 1.74 1.74
0 0 52.2047 9.46057 0.127633 0.0341842 1.77 1.14
0 0 48.2323 9.10794 0.0986941 -0.048424 1.77 1.02
0 0 44.2321 9.12044 -0.00249519 0.0187519 1.59 0.93
0 0 40.2283 9.03134 -0.0599873 0.0258212 1.74 1.02
0 0 36.4804 7.64925 -0.112293 0.270273 1.77 1.35
0 0 32.8033 6.24818 0.102375 -0.172119 1.77 1.14
0 0 28.9167 5.35715 -0.0923182 0.371506 1.38 1.29
0 0 25.531 3.4403 0.0996169 -0.246437 1.05 1.77
0 0 22.288 1.10936 -0.0932545 0.0260761 1.62 1.62
0 0 44.0156 62.762 0.127239 0.297644 1.35 1.23
0 0 41.3978 65.6971 -0.0156892 0.260991 1.77 1.32
0 0 40.0838 69.4714 -0.0715156 0.208907 1.74 1.2
0 0 37.3899 72.3864 -0.300398 -0.185009 1.77 1.02
0 1 36.1711 0.877626 -0.014887 -0.0322201 1.77 1.23
0 1 38.655 3.83525 -0.0172137 0.184983 1.71 1.29
0 1 42.4343 5.07503 0.0877761 -0.0947462 1.56 1.41
0 1 46.4191 4.7135 0.132086 -0.250526 1.65 1.17
0 1 50.328 3.97064 0.184701 -0.246072 1.77 1.47
0 0 43.94 38.6833 0.294127 0.0514135 1.77 1.77
0 0 46.6063 35.7069 -0.0128506 -0.0466234 1.77 1.77
0 0 50.1478 33.918 -0.151608 -0.0666396 1.74 1.77
0 0 53.9965 32.8831 -0.144158 -0.138507 1.77 1.77
0 0 57.8586 31.8536 -0.0486933 -0.0802717 1.71 1.74
0 0 61.7842 31.1125 0.0296202 0.0626155 1.77 1.74
0 0 65.5007 29.6443 0.00528553 -0.0118282 1.77 1.77
0 0 69.3509 28.7151 -0.0454035 -0.377616 1.77 1.77
0 0 73.322 28.8185 0.0965239 -0.434322 1.74 1.74
1 0 0.963695 31.5594 0.0637852 -0.0983599 1.74 1.77
1 0 2.67142 35.1786 -0.320882 0.151747 1.53 1.77
0 0 57.7667 39.3816 0.0789918 -0.0390537 1.77 1.41
0 0 61.7046 40.0981 -0.00845243 -0.156162 1.74 1.56
0 0 64.7263 42.5904 0.088571 -0.189758 1.77 1.62
0 0 67.394 45.5712 0.0882593 -0.0983693 1.74 1.32
0 0 69.9091 48.6778 -0.0823515 0.0642193 1.77 1.74
0 0 71.2438 52.3718 0.314484 -0.105302 1.77 1.62
0 0 70.025 56.1242 -0.299755 -0.337139 1.77 1.47
0 0 67.667 59.3603 -0.0821143 -0.0549218 1.77 1.77
0 0 68.4724 62.9413 -0.0141917 -0.0453678 1.68 1.77
0 0 72.0023 61.8094 0.0929397 -0.0201936 1.53 1.77
0 0 13.5164 52.5562 0.132258 0.0396 1.38 1.77
0 0 17.3516 53.5464 0.10267 0.0427616 1.17 1.74
0 0 20.7593 55.6387 0.111421 -0.0659083 1.11 1.77
0 0 23.3185 58.6836 0.169464 -0.0596928 1.41 1.71
0 0 26.0001 61.6141 0.137122 -0.0493908 1.77 1.74
0 0 29.7089 62.9422 0.0774174 0.149584 1.74 1.59
0 0 33.6947 62.6938 0.125847 0.149311 1.71 1.68
0 0 36.9387 64.8497 0.108266 0.0300214 1.56 0.93
0 0 36.695 68.6965 -0.0764467 0.0104986 1.59 1.32
0 0 34.3359 71.9205 -0.0431443 0.0100199 1.41 0.96
0 1 33.0875 0.471581 -0.167136 0.0217926 1.26 1.17
0 0 50.4696 14.0181 0.068128 0.342134 1.56 0.93
0 0 46.5497 13.3452 0.141185 -0.0299055 1.74 1.02
0 0 42.5561 13.3934 0.0878536 -0.114257 1.71 0.93
0 0 38.5714 13.0788 0.0249199 -0.22493 1.71 0.93
0 0 34.8705 11.7172 0.116034 -0.177026 1.77 1.11
0 0 31.4236 9.71952 -0.0660259 0.162147 1.77 1.65
0 0 27.8925 11.119 0.0424514 0.102 1.77 1.77
0 0 27.8957 15.0852 0.170593 0.0347624 1.77 1.38
0 0 27.2254 18.9748 -0.318049 -0.0728638 1.77 1.11
0 0 23.1362 60.9223 0.0167186 0.112108 1.23 0.93
0 0 19.9527 58.6038 0.0117148 0.1121 1.77 1.26
0 0 16.0692 57.7788 -0.0158282 0.196006 1.77 1.17
0 0 12.2107 58.844 -0.12249 -0.0761184 1.77 1.23
0 0 9.6515 61.8648 0.088943 0.190336 1.77 1.23
0 0 9.08868 65.82 -0.251311 0.152631 1.77 1.05
0 0 8.1295 69.6961 -0.165725 0.107233 1.77 0.96
0 0 6.44761 73.2542 0.0389501 0.178325 1.77 1.38
0 1 3.62113 0.844722 0.280222 0.092856 1.77 1.74
0 1 4.32644 4.4354 0.161556 -0.318868 1.71 1.08
0 1 8.14411 4.06593 0.118244 -0.150362 0.96 1.05
0 0 21.5176 63.6648 0.0879678 0.0811018 1.77 1.68
0 0 18.353 61.3018 0.249498 -0.0139873 1.77 1.65
0 0 14.4323 61.3385 0.400402 0.382884 1.77 1.56
0 0 12.3446 64.6458 0.289062 0.109372 1.77 1.56
0 0 11.4436 68.5507 -0.210135 0.0160414 1.74 1.29
0 0 10.7478 72.4917 0.513453 0.136663 1.77 1.47
0 1 8.82435 0.753799 0.328143 0.169656 1.77 1.77
0 0 59.1892 52.5926 -0.14649 -0.0575781 1.77 1.41
0 0 57.4646 56.1383 -0.0454243 0.0188388 1.77 1.2
0 0 57.539 60.1071 -0.0946099 0.00837617 1.77 1.17
0 0 58.5466 63.9717 -0.130329 0.106017 1.74 1.11
0 0 60.4497 67.4799 0.207827 -0.0612525 1.71 1.26
0 0 61.5136 71.2898 -0.0359337 -0.0116852 1.74 1.47
0 0 62.0696 75.1717 -0.245407 0.166478 1.77 1.32
0 1 64.7469 2.73724 0.0472113 0.0580513 1.71 1.65
0 1 68.4239 1.46969 0.045418 -0.183584 1.5 1.56
0 0 70.5701 73.3492 0.147499 -0.0476518 1.71 1.47
0 0 26.0927 65.1592 -0.0150105 0.0250469 1.17 1.38
0 0 30.0084 64.454 -0.0196878 -0.136226 1.35 1.23
0 0 33.9829 64.2564 0.0450321 -0.125803 1.5 1.2
0 0 35.8096 67.4558 -0.14026 0.0168117 1.26 0.93
0 0 33.5847 70.7668 0.133944 0.150007 1.2 0.99
0 0 31.5022 74.1769 -0.0630462 0.0197706 1.29 1.77
0 0 27.7602 74.0408 -0.112814 -0.0357714 1.62 0.96
0 0 24.8651 71.3504 0.0733031 -0.0632226 1.77 1.35
0 0 25.9582 67.682 -0.208913 -0.112145 1.65 1.65
0 0 17.4734 43.8041 -0.0494538 0.122092 1.53 0.96
0 0 21.0573 45.5895 -0.0373024 0.138506 1.56 0.96
0 0 24.2715 47.9726 0.0543145 0.0879281 1.74 0.99
0 0 27.3536 50.5149 -0.0189951 0.15165 1.65 1.23
0 0 30.5617 52.88 -0.0749689 0.158143 1.44 0.93
0 0 30.2777 56.5406 0.00658887 0.147031 0.99 1.74
0 0 26.5907 55.8791 -0.136233 0.0780139 1.32 1.14
0 0 23.5694 53.2787 0.00542113 0.0106023 1.5 1.5
0 0 20.1161 51.2479 -0.133796 0.176129 1.5 1.02
0 0 16.4942 49.5419 -0.20548 0.136845 1.56 1.11
0 0 12.552 49.3112 -0.0711602 0.0641671 1.41 0.96
0 0 8.55358 49.4555 -0.0129225 0.12763 1.23 1.26
-1 0 75.1469 8.17044 0.0375824 0.0426961 1.26 1.44
0 0 3.74446 9.43277 0.0385772 0.135848 1.14 1.14
0 0 7.65114 9.13508 -0.00321338 0.0185657 1.5 1.23
0 0 11.1008 7.15115 -0.0183324 -0.101073 1.29 1.11
0 0 14.6659 5.3703 0.108739 0.156193 1.17 1.11
0 0 18.5697 5.96434 0.0469637 0.296925 1.11 1.05
0 0 21.5303 8.59219 0.0879054 0.0351723 1.74 1.17
0 0 22.9947 12.2799 0.167591 -0.0527152 1.26 1.14
0 0 24.2546 16.0714 0.0216725 -0.0224239 1.56 1.71
0 0 23.7087 19.9807 -0.137102 -0.0133975 1.29 1.11
0 0 48.7462 45.556 -0.0967726 0.0590013 1.14 0.93
0 0 45.8903 48.3553 0.0230658 0.136978 1.02 1.53
0 0 44.5055 52.1037 0.243797 0.139191 1.11 1.2
0 0 42.6652 55.606 0.0857055 0.113551 1.71 1.08
0 0 38.9389 56.6077 -0.0827743 -0.083282 1.74 1.11
0 0 35.7448 54.3648 -0.0843598 -0.0500508 1.77 1.38
0 0 34.2254 50.6685 -0.110778 -0.0109692 1.44 1.23
0 0 31.5572 47.7359 0.0168731 -0.134684 1.11 1.77
0 0 28.2958 45.4232 -0.162283 0.0689471 1.02 1.77
0 0 25.1098 43.0005 -0.304388 0.219431 0.96 1.77
0 0 21.9117 40.5984 -0.108982 -0.037078 1.02 1.77
0 0 18.4975 38.517 -0.162477 0.0771455 1.26 1.74
1 0 6.39506 31.7128 -0.173983 -0.0704878 1.53 1.71
1 0 4.76542 28.0539 -0.233945 -0.0874503 1.62 1.65
1 0 2.31582 24.8873 0.018062 -0.313517 1.5 1.68
0 0 73.7908 23.5158 -0.0618172 -0.377394 1.26 1.71
0 0 69.8042 23.3168 -0.0150982 -0.372538 1.44 1.56
0 0 65.8653 23.8247 0.0679108 -0.0681416 1.68 1.56
0 0 61.9829 24.7132 0.0415228 -0.17017 1.65 1.26
0 0 57.9975 24.9341 0.0119471 0.0425645 1.59 0.93
0 0 54.1937 26.1596 -0.0942657 -0.143417 1.71 1.05
0 0 50.2539 26.6634 0.00394243 -0.0228199 1.71 1.71
0 0 46.317 26.4436 -0.0469171 0.0733917 1.71 1.77
0 0 43.0638 24.12 -0.0408494 -0.0143621 1.77 1.68
0 0 65.3424 22.2628 -0.00483518 -0.30827 1.08 1.44
0 0 61.5055 23.3011 0.000277469 -0.219096 0.93 1.17
0 0 57.5194 23.5789 -0.00189363 -0.156059 1.08 1.23
0 0 53.5382 23.8196 0.0380262 0.158407 1.11 1.05
0 0 49.5435 23.6964 0.0142221 -0.397047 0.96 1.08
0 0 45.9469 22.1583 -0.03597 0.00018701 1.77 1.17
0 0 42.3181 20.6585 -0.0389692 -0.191028 1.77 0.96
0 0 38.3561 20.9834 -0.0243179 0.00258502 1.77 1.05
0 0 35.1612 23.3164 -0.0840032 0.0299163 1.77 1.38
0 0 33.6693 27.0175 -0.109171 0.0603599 1.77 1.05
-1 0 74.2626 36.3447 -0.420931 0.173531 1.68 1.77
-1 0 70.7178 34.6405 -0.107192 -0.138387 1.74 1.77
-1 0 67.8988 36.9761 0.12127 -0.191064 1.77 1.77
-1 0 68.0185 40.9548 -0.268955 -0.13531 1.77 1.77
-1 0 70.4374 44.0828 -0.0867111 -0.0537515 1.74 1.74
-1 0 73.1563 47.0122 -0.278854 0.0964056 1.77 1.71
-1 0 74.6364 50.6997 -0.280087 -0.0324712 1.62 1.77
-1 0 74.4474 54.685 -0.274192 -0.159265 1.77 1.77
-1 0 73.4062 58.5382 0.376267 0.0733481 1.77 1.62
0 0 43.1079 52.5538 0.0138804 0.0760284 1.26 0.99
0 0 44.4235 48.7744 0.102365 0.0488007 1.02 1.23
0 0 46.9299 45.6966 0.0157298 -0.100512 0.96 1.08
0 0 50.363 43.6911 0.0899466 0.0594956 1.68 1.11
0 0 54.0463 42.1529 -0.0469878 -0.188407 1.32 0.93
0 0 57.9978 42.1202 -0.0939941 0.0629524 1.23 0.93
0 0 61.7279 43.5138 0.164701 -0.28368 1.68 0.99
0 0 64.3527 46.5267 -0.142634 0.0386063 1.71 0.93
0 0 66.995 49.533 0.180136 -0.203546 1.71 1.05
0 0 67.5433 53.4138 -0.119409 -0.116623 1.74 0.96
0 0 50.6303 21.1913 0.0655889 -0.141826 1.14 1.65
0 0 46.7127 20.4645 0.0632572 -0.114596 1.74 1.77
0 0 42.9908 19.2252 -0.0466253 0.0774002 1.77 0.93
0 0 39.0025 19.3166 -0.0590515 0.18431 1.77 1.14
0 0 35.3395 20.8334 -0.019406 0.163444 1.74 1.2
0 0 33.2031 24.1715 -0.0824217 0.106618 1.77 0.99
0 0 32.2194 28.0255 -0.0167137 0.1137 1.68 0.99
0 0 31.9053 31.9397 -0.00780432 0.088904 1.74 1.74
0 0 28.3524 31.9783 -0.121809 0.0816199 1.62 1.14
0 0 15.362 27.9775 -0.080059 -0.0227218 1.77 1.74
0 0 19.192 27.5878 -0.0890741 -0.0226445 1.59 1.68
0 0 20.8276 31.1104 -0.337936 0.0915156 1.71 0.93
0 0 21.1462 35.0981 -0.313235 0.10191 1.77 1.44
0 0 23.4106 38.3154 -0.0538569 -0.0115891 1.74 1.35
0 0 26.5538 40.7933 -0.232118 0.25497 1.59 1.59
0 0 29.8312 43.0572 -0.0528438 0.135716 1.77 1.77
0 0 32.9195 45.5828 0.0878773 0.000229468 1.53 1.77
0 0 35.9108 48.2277 -0.0394495 0.0816935 1.56 1.71
0 0 38.0226 51.5985 -0.0298822 0.0504306 1.62 1.77
0 0 32.3233 13.4685 -0.23569 0.0947096 1.77 1.77
0 0 32.7754 17.3704 -0.0500333 0.0809992 1.77 1.74
0 0 31.272 21.0513 -0.118466 -0.0485857 1.74 1.74
0 0 29.2407 24.4831 -0.0814329 -0.134617 1.77 1.74
0 0 26.2857 27.165 0.167833 0.125491 1.77 1.74
0 0 24.8468 30.8307 0.189405 0.111922 1.77 1.77
0 0 26.2098 34.4808 -0.106024 0.0938495 1.77 1.74
0 0 29.5799 36.5306 -0.107985 0.162196 1.77 1.74
0 0 33.4605 35.8199 -0.011242 0.0220005 1.77 1.77
0 0 35.9705 32.8507 -0.256095 -0.0944039 1.74 1.77
0 0 36.9251 29.0129 -0.182225 0.0329856 1.74 1.74
0 0 38.1364 25.2952 -0.000627708 0.097115 1.56 1.77
0 1 42.584 1.67181 -0.0823978 -0.107071 1.77 1.77
0 1 46.5385 1.0858 -0.038349 -0.253724 1.77 1.77
0 0 50.288 74.9539 0.215046 0.25195 1.74 1.77
0 0 52.0648 71.4397 0.00290403 -0.0707148 1.68 1.77
0 0 55.4258 69.7044 0.129322 0.0687209 1.14 1.68
0 0 57.8818 72.6796 -0.45998 0.260204 1.74 0.93
0 1 59.0795 1.28636 -0.00703577 0.111358 1.77 1.11
0 1 61.091 4.74806 0.0706649 0.0771513 1.77 1.23
0 1 62.2911 8.56944 0.39107 -0.0341903 1.77 1.77
0 1 62.496 12.5601 0.415433 -0.130891 1.74 1.68
0 1 61.4954 16.3263 0.335732 0.0473142 1.74 1.77
0 0 13.5381 13.7615 0.130626 0.105642 1.5 1.68
0 0 10.6151 16.4429 0.26907 0.394989 1.68 1.77
0 0 7.10116 18.3505 0.0525153 0.132037 1.47 1.77
0 0 3.29831 19.2512 0.0452993 0.263988 1.56 1.77
-1 0 74.7834 17.7768 0.0072401 0.0714682 1.77 1.77
-1 0 71.4812 15.5836 -0.0114485 -0.12928 1.74 1.77
-1 0 69.2605 18.3778 -0.0029101 -0.142244 1.71 1.77
-1 0 72.4502 20.4152 0.0192933 -0.232679 1.77 1.77
0 0 1.23682 20.2238 -0.0502307 0.0174302 1.65 1.74
0 0 4.6402 22.302 -0.11651 -0.112673 1.77 1.77
0 0 7.15776 25.3452 -0.100871 -0.12571 1.74 1.74
0 0 39.9123 53.2756 0.0486777 0.164085 1.62 1.77
0 0 40.9639 49.4138 -0.20738 0.061498 1.77 1.41
0 0 41.277 45.4265 -0.20887 0.0477884 1.65 1.29
0 0 43.5713 42.2256 -0.0278699 0.173724 1.77 1.23
0 0 47.0821 40.3129 -0.221962 -0.152075 1.77 0.99
0 0 50.6813 38.5759 -0.154591 0.0211371 1.77 1.23
0 0 54.4633 37.285 -0.0873824 -0.0051086 1.77 0.99
0 0 58.3314 36.2789 -0.037402 -0.205076 1.71 0.96
0 0 62.3184 36.4022 -0.186376 0.365859 1.77 1.23
0 0 65.444 38.8402 -0.142058 -0.0264159 1.77 1.77
0 0 30.745 13.2153 -0.00786015 -0.0539529 1.71 1.29
0 0 31.1686 17.1873 -0.0976359 -0.0182692 1.77 1.2
0 0 29.5572 20.8177 -0.0563323 0.0378552 1.74 1.26
0 0 27.4363 24.1891 -0.161569 0.0538122 1.77 1.35
0 0 24.4965 26.8452 -0.189399 0.0471329 1.77 1.2
0 0 23.4483 30.6663 0.0897688 0.0523044 1.77 1.05
0 0 24.248 34.5768 -0.0873965 0.00490276 1.77 1.08
0 0 27.1321 37.3027 -0.144266 0.0507442 1.77 1.29
0 0 30.5666 39.3586 -0.176719 0.173934 1.77 1.59
0 0 34.4821 38.9995 -0.115872 -0.0980109 1.71 1.23
0 0 22.8817 5.42814 0.0367229 0.0797169 1.62 1.77
0 0 19.884 2.78511 0.217165 -0.0924273 1.26 1.77
0 0 15.9774 2.00138 0.162179 -0.278424 1.23 1.77
0 0 12.1055 2.59177 0.113543 0.0796448 1.35 1.77
0 0 8.8259 4.86949 -0.0276107 -0.153127 1.08 1.77
0 0 5.13059 6.26873 0.0392912 0.0248403 1.65 1.77
0 0 1.38069 4.94487 0.177881 -0.111372 1.77 1.77
-1 0 72.6402 4.96025 0.154019 0.533751 1.77 1.41
-1 0 68.9757 6.40858 0.239338 0.282283 1.77 1.77
-1 0 65.9974 9.06594 0.148331 0.0562174 1.77 1.44
0 0 18.1485 56.1867 -0.153598 0.354316 1.77 1.29
0 0 14.2088 56.6388 -0.103686 -0.036453 1.77 1.23
0 0 10.4004 57.797 -0.0988764 -0.223548 1.77 1.41
0 0 8.20312 61.0824 -0.454958 -0.121067 1.77 1.5
0 0 7.45155 65.0179 0.294943 0.086459 1.77 1.35
0 0 6.71451 68.9472 -0.14834 -0.00827738 1.77 1.35
0 0 4.72192 72.4052 0.492962 0.366391 1.77 1.56
0 1 2.05656 0.18468 0.326505 0.201969 1.77 1.71
-1 1 74.3004 2.82115 0.0159425 -0.0726644 1.77 1.77
0 0 74.711 63.0861 -0.183472 -0.0432085 0.93 1.29
0 0 71.8253 65.761 0.155625 0.453109 0.99 1.14
0 0 67.9612 66.166 0.000860405 -0.0111281 1.29 1.23
0 0 64.5629 64.091 0.242463 -0.400101 1.77 1.47
0 0 62.6738 60.6226 0.146951 -0.103965 1.65 1.29
0 0 62.8356 56.6819 -0.0203555 -0.0593521 1.53 1.41
0 0 62.5155 52.8302 0.30655 -0.262006 1.47 1.77
0 0 59.2059 50.8452 -0.0423884 -0.0522976 1.68 1.74
0 0 56.2039 53.2377 -0.0692785 -0.00491478 1.77 1.77
0 0 55.2588 57.1065 0.0239905 -0.0265463 1.77 1.77
0 0 56.0856 60.984 0.0331231 -0.175797 1.74 1.32
0 0 17.6003 13.7936 -0.0432467 -0.0115346 1.77 1.2
0 0 18.5194 17.5957 -0.332866 -0.009197 1.77 0.93
0 0 16.8353 21.1685 -0.093265 -0.00478575 1.77 1.02
0 0 13.5675 23.4564 0.0521403 0.0987042 1.77 1.2
0 0 11.8424 26.942 -0.102207 0.0283142 1.77 1.11
0 0 12.5048 30.8791 -0.191384 -0.0196578 1.68 1.17
0 0 12.9656 34.8394 -0.444513 -0.181305 1.68 0.96
0 0 10.7909 38.1063 -0.078698 -0.19913 1.77 1.5
0 0 15.862 15.1851 0.0106675 0.158496 1.68 1.77
0 0 14.9398 18.9869 -0.241594 -0.108562 1.32 0.99
0 0 11.5747 21.1443 0.0612368 0.203064 1.35 0.93
0 0 9.34234 24.3808 -0.0922789 -0.0343328 1.77 1.05
0 0 8.93234 28.3579 -0.239753 -0.0484825 1.77 1.2
0 0 9.97016 32.2179 0.00222837 -0.023522 1.71 0.93
0 0 9.06304 35.7984 0.00485385 -0.056951 1.2 0.96
0 0 5.7176 34.3466 -0.0376731 0.00195657 0.93 0.93
0 0 4.05765 30.7076 0.1251 -0.0519406 1.44 1.14
0 0 1.97057 27.3296 0.331888 -0.281752 1.41 1.14
0 0 62.7551 17.4527 0.0781962 -0.182398 1.65 1.77
0 0 59.4267 19.3503 0.0688154 0.0635723 1.62 1.77
0 0 55.427 19.3861 -0.0211294 -0.101251 1.77 1.59
0 0 51.566 18.3421 0.0205755 -0.454093 1.77 1.71
0 0 47.5997 17.9333 -0.0116444 -0.190874 1.74 1.23
0 0 43.6009 17.8389 -0.0810886 -0.0590761 1.77 0.96
0 0 39.6058 17.7892 -0.153682 -0.00650538 1.68 1.14
0 0 35.7408 18.5371 -0.29249 -0.286037 1.77 1.17
0 0 33.0985 21.4889 -0.0180688 0.0304912 1.68 1.02
0 0 31.1007 24.9446 -0.118241 0.0181056 1.68 1.44
0 0 43.754 61.3937 0.123744 0.296269 0.93 1.23
0 0 40.0684 62.8375 -0.0304202 -0.0708996 1.14 1.77
0 0 36.2537 61.6665 -0.0274399 0.0406179 0.93 1.77
0 0 32.3316 60.9706 -0.0449969 0.0823895 1.05 1.74
0 0 28.3576 60.9085 -0.0989915 0.0805202 1.35 1.77
0 0 25.2945 58.4068 0.175783 -0.215875 0.99 1.74
0 0 23.0128 55.1183 0.0820887 -0.0980757 1.71 1.77
0 0 19.7997 52.7522 0.00865543 0.0682994 1.77 1.77
0 0 16.2038 51.0052 0.143859 -0.141432 1.77 1.74
0 0 12.2446 50.6969 0.0116926 0.0875853 1.77 1.77
0 0 8.25485 50.9169 -0.0228985 0.0899228 1.77 1.77
-1 0 74.9066 39.0893 -0.0655703 0.0292985 1.77 1.77
0 0 2.28356 42.1486 0.0288041 -0.0840626 1.74 1.74
0 0 5.11491 44.9347 -0.00110219 -0.098081 1.74 1.74
0 0 9.00742 45.605 0.0111714 0.102626 1.65 1.74
0 0 12.9986 45.3805 -0.0324597 0.148425 1.59 1.38
0 0 17.0004 45.5548 -0.0450538 0.150257 1.68 1.68
0 0 20.5927 47.3044 -0.0387593 0.144363 1.47 1.65
0 0 23.7277 49.7861 -0.0572893 0.139331 1.5 1.77
0 0 26.8657 52.2049 0.0463844 0.0279457 0.93 1.74
1 -1 13.5199 55.4018 0.15541 0.120336 1.56 0.93
1 -1 9.69135 56.3885 0.243027 0.061571 1.77 1.2
1 -1 7.04219 59.3162 -0.0278175 -0.156347 1.77 1.53
1 -1 6.10665 63.2022 -0.0260972 -0.111068 1.77 1.5
1 -1 5.37075 67.1263 0.158933 -0.0718499 1.77 1.5
1 -1 3.7391 70.7794 0.282106 0.0429592 1.74 1.68
1 -1 1.15831 73.8389 -0.0450282 -0.152089 1.77 1.74
0 0 73.3293 1.1815 0.0590145 -0.141965 1.77 1.77
0 0 70.279 3.73939 0.164098 0.133026 1.56 1.56
0 0 66.8356 5.75529 -0.00313866 -0.0972176 1.71 1.56
0 0 64.2703 8.72206 -0.137221 -0.084012 1.77 1.71
0 0 37.8936 63.8676 0.168202 0.0746768 1.56 1.23
0 0 38.899 67.6177 -0.0199206 0.138662 1.65 1.71
0 0 36.7473 70.9339 -0.138192 0.0133754 1.68 1.35
0 0 34.6975 74.3196 -0.305271 0.0947604 1.47 1.23
0 1 35.353 2.96795 0.0264634 0.176426 1.53 1.32
0 1 38.4216 5.46116 0.0768255 0.0304874 1.56 1.2
0 1 42.2906 6.44318 0.0568121 -0.108887 1.14 1.05
0 1 46.2694 6.07889 0.0792091 -0.22197 1.32 1.02
0 1 50.2264 5.61543 0.136055 0.0681088 1.68 1.05
0 1 53.5727 7.70131 0.175371 0.084557 1.74 1.74
0 0 29.6451 15.1371 0.081194 0.0761389 1.77 0.99
0 0 28.9375 18.9933 -0.0462961 0.0483961 1.77 0.93
0 0 27.1024 22.5478 -0.0206075 0.0805052 1.77 0.96
0 0 24.0519 25.1061 0.0341173 0.0603834 1.77 0.96
0 0 22.2061 28.5353 0.0743433 0.0293913 1.77 1.11
0 0 22.2818 32.5278 -0.222931 0.113499 1.77 0.96
0 0 23.6223 36.2654 -0.144095 0.11682 1.77 1.05
0 0 26.7585 38.7349 -0.165904 0.00664729 1.74 0.93
0 0 29.967 41.1136 -0.232885 -0.023276 1.77 1.32
0 0 6.92531 15.0052 0.205235 0.278649 1.14 1.59
0 0 9.8321 12.3575 0.134823 0.0854051 0.96 1.71
0 0 12.4926 9.40188 0.0125753 -0.0513664 0.93 1.59
0 0 16.2152 8.0834 0.0628117 -0.0261932 0.96 1.74
0 0 19.8273 9.69763 0.199359 -0.136088 1.08 1.05
0 0 21.7826 13.1434 0.0369146 0.0455864 0.93 1.32
0 0 22.8977 16.9534 -0.0249475 0.0457418 0.96 0.96
0 0 21.9725 20.8109 -0.16748 0.00230259 0.96 0.93
0 0 20.8438 24.6426 -0.0808283 0.0467019 1.47 1.74
0 0 10.586 1.35522 0.218461 0.144603 1.71 1.5
0 0 14.4024 0.327367 0.0809364 -0.17123 1.44 1.23
0 0 18.3719 0.824335 0.0154088 0.0941064 1.35 1.23
0 0 21.9255 2.57342 0.00340174 0.010102 1.29 1.29
0 0 24.7584 5.39028 0.14482 -0.0899921 1.29 1.56
0 0 26.1122 9.02956 0.3444 0.0364343 1.77 1.77
0 0 26.0299 13.0241 0.0364538 0.0448524 1.74 1.35
0 0 26.2336 17.0021 -0.0608614 0.0708058 1.77 1.2
0 0 24.9047 20.7731 -0.171629 -0.0134783 1.71 0.93
0 0 22.6046 24.0145 -0.0903326 -0.0906768 1.77 1.2
0 0 42.9319 48.5915 -0.240607 -0.00317622 1.74 1.62
0 0 45.1403 45.2946 -0.179601 0.0179889 1.62 1.53
0 0 48.4474 43.1022 -0.0989965 -0.0169097 1.47 1.29
0 0 52.0376 41.3418 -0.0382785 -0.0554013 1.68 1.35
0 0 55.9259 40.5351 -0.0553986 -0.0525814 1.59 1.14
0 0 59.8781 41.1468 -0.0737811 -0.0778731 1.65 0.99
0 0 63.2718 43.1407 -0.139537 0.00896942 1.71 1.29
0 0 65.9013 46.1469 0.154719 -0.204545 1.71 1.23
0 0 68.4192 49.2451 -0.0100843 -0.0479778 1.77 1.11
0 0 69.1484 53.0734 0.111316 -0.167673 1.77 1.32
0 0 56.4696 5.70444 0.192812 -0.117487 1.71 1.11
0 0 58.0276 9.37964 -0.0620672 -0.0922628 1.65 0.99
0 0 57.3563 13.1896 0.173452 0.00233039 1.74 1.14
0 0 53.5889 14.1233 0.0415165 0.13292 1.56 0.93
0 0 50.0273 12.2989 -0.0397239 0.0663026 1.62 0.96
0 0 46.0619 11.9626 -0.00994796 -0.126698 1.77 0.99
0 0 42.0676 11.886 0.0361128 -0.593984 1.65 0.99
0 0 38.1051 11.4412 0.0632694 0.0036319 1.68 1.05
0 0 34.4364 9.91827 0.085464 0.0020644 1.77 0.93
0 0 54.3954 24.6964 -0.125789 -0.258265 1.05 0.96
0 0 50.4617 25.0788 -0.0638384 0.0837071 1.74 1.53
0 0 46.549 24.5106 0.0885626 -0.0899446 1.65 1.5
0 0 43.1917 22.4194 -0.060963 0.0531976 1.77 1.74
0 0 39.2837 22.254 -0.136083 -0.125185 1.77 1.77
0 0 36.2303 24.7296 -0.222996 -0.0748055 1.77 1.74
0 0 35.0643 28.501 0.132677 0.0984529 1.71 1.77
0 0 34.2413 32.3632 0.172133 0.249608 1.68 1.77
0 0 31.0378 34.6178 -0.12546 -0.123767 1.74 1.77
0 0 27.4854 33.1252 -0.195908 0.269047 1.62 1.77
0 0 40.0905 74.7012 -0.0648911 -0.0159014 1.32 1.77
0 0 42.7095 71.6903 0.0625563 0.0931083 1.47 1.74
0 0 45.1663 68.5813 -0.156027 -0.0239952 1.59 1.53
0 0 47.9485 65.7188 0.255453 0.333582 1.29 1.08
0 0 51.0938 63.3554 0.0584674 0.122799 1.05 1.71
0 0 54.0593 65.6235 -0.112198 -0.0485885 1.14 0.96
0 0 51.9955 68.728 0.15768 0.0243547 1.59 1.77
0 0 49.9338 72.0908 0.103695 -0.0096427 1.71 1.77
0 0 46.932 74.4426 -0.050994 -0.124082 1.56 1.74
0 0 42.9614 74.7788 -0.0989895 -0.0259843 1.77 1.77
-1 0 47.2906 36.9608 0.147619 0.315847 1.77 0.93
-1 0 50.9081 35.2799 0.0111252 0.167676 1.77 1.35
-1 0 54.7939 34.3514 0.0482715 -0.0765512 1.74 1.2
-1 0 58.6948 33.4825 0.0888731 -0.147659 1.77 1.17
-1 0 62.6034 32.6406 0.168407 0.0843685 1.77 1.41
-1 0 66.2671 31.0353 0.0833069 -0.0373103 1.74 1.17
-1 0 70.1282 30.0069 0.000291539 -0.269923 1.23 1.02
-1 0 73.7975 31.3038 0.075623 -0.189978 1.53 1.65
0 0 0.976268 34.5046 0.0119315 -0.108439 1.08 0.99
0 0 2.71488 38.0996 0.0897723 -0.184691 1.08 1.29
0 0 5.21142 41.1965 0.0969923 -0.266299 1.26 1.38
0 0 16.6908 54.8022 -0.102026 0.349709 1.38 0.93
0 0 12.808 53.9913 -0.0376869 -0.111654 1.35 0.93
0 0 8.9096 54.7388 -0.151629 -0.305525 1.77 1.47
0 0 6.04945 57.4544 -0.23071 -0.0957275 1.77 1.41
0 0 4.93967 61.299 0.333106 0.055907 1.77 1.29
0 0 4.05979 65.2036 0.292159 0.090226 1.71 1.47
0 0 2.62595 68.9365 -0.193603 -0.0821268 1.77 1.59
0 0 0.399089 72.2292 -0.31579 -0.376403 1.77 1.59
-1 0 72.949 6.56883 0.0447254 0.337739 1.38 1.74
0 0 1.72018 6.9799 0.0306634 -0.123547 1.77 1.77
0 0 5.51572 8.18549 0.0198001 -0.0942645 1.74 1.74
0 0 9.21948 6.74921 -0.0580019 -0.129944 1.62 1.74
0 0 12.4989 4.46816 0.0332651 -0.0137344 1.62 1.74
0 0 16.3624 3.86909 0.106774 -0.0784492 1.59 1.62
0 0 20.1041 5.16867 0.0395367 0.0843283 1.44 1.77
0 0 23.0493 7.8752 0.17514 -0.0420569 1.74 1.47
0 0 24.2966 11.6023 -0.050073 -0.0242397 1.74 1.65
0 0 70.472 26.782 -0.235867 -0.271194 1.77 1.74
0 0 66.5315 27.3116 -0.154877 -0.186156 1.77 1.74
0 0 62.7728 28.6763 -0.130533 -0.280761 1.74 1.74
0 0 58.938 29.8073 -0.0782641 -0.230933 1.65 1.77
0 0 55.0547 30.7506 -0.18643 -0.223017 1.56 1.74
0 0 51.1845 31.7309 -0.0398172 0.273255 1.74 1.65
0 0 47.3393 32.8444 -0.0756674 -0.0814695 1.77 1.77
0 0 44.2531 35.3815 -0.152731 -0.19267 1.77 1.77
0 0 41.9875 38.651 0.0759562 -0.0715159 1.77 1.77
0 0 49.0535 22.6185 -0.0934742 0.208846 0.99 1.5
0 0 53.0517 22.5835 -0.0226628 -0.14656 1.08 1.71
0 0 57.0516 22.5987 0.0235927 -0.133337 0.93 0.99
0 0 61.0455 22.3738 0.0484387 0.0478127 0.93 1.23
0 0 64.6945 20.8856 -0.102146 -0.413418 1.32 1.68
0 0 66.4465 17.3978 0.229012 -0.180702 1.05 1.17
0 0 68.1699 13.8121 0.147161 -0.0709792 0.96 0.93
0 0 71.8135 12.3719 0.230049 -0.00823118 1.02 1.35
1 0 0.516324 13.2628 0.183251 0.293727 1.05 1.32
1 0 4.43191 14.0401 0.295217 -0.0550354 1.08 0.96
0 0 44.7981 43.2517 -0.0381045 0.0124349 1.65 0.99
0 0 48.3246 41.3661 -0.0519132 0.161134 1.77 0.93
0 0 51.9331 39.6595 -0.112677 -0.0183562 1.77 1.14
0 0 55.6921 38.3127 0.00276343 0.09075 1.71 0.93
0 0 59.6031 37.9349 -0.112439 0.125075 1.77 1.11
0 0 63.3871 39.0207 -0.131578 -0.0653683 1.68 1.23
0 0 66.2171 41.847 -0.136222 -0.00909489 1.29 1.47
0 0 68.8406 44.8676 -0.0218997 0.000358437 1.74 1.56
0 0 71.5664 47.7911 0.277144 -0.117377 1.77 1.47
0 0 73.1075 51.4702 0.213024 0.0284738 1.77 1.5
0 0 34.6044 58.3511 -0.0652499 0.19973 1.71 1.77
0 0 38.3572 59.7321 0.0549045 -0.117336 1.5 1.77
0 0 42.3018 59.5826 0.0131591 -0.0364107 1.38 1.74
0 0 45.5263 57.2454 -0.188088 -0.176135 1.59 1.68
0 0 47.673 53.9078 0.0654876 0.0428601 1.77 1.77
0 0 49.0948 50.1845 -0.0117323 -0.0118982 1.74 1.77
0 0 51.6745 47.1321 -0.119536 -0.119039 1.59 1.77
0 0 55.1013 45.1276 0.0529829 0.231705 1.53 1.77
0 0 58.9492 45.6734 -0.0795359 0.0925072 1.77 1.77
0 0 62.5611 47.3427 -0.0716171 0.038542 1.77 1.41
0 0 65.4396 50.1117 0.0594246 -0.0918162 1.38 1.35
0 0 39.4646 47.5497 0.0244853 -0.0749749 1.77 1.77
0 0 40.1386 43.7056 -0.079802 -0.127815 1.77 1.77
0 0 42.8426 40.7896 0.0881957 0.0806981 1.71 1.77
0 0 46.4319 39.0211 -0.167509 -0.275448 1.77 1.5
0 0 49.9957 37.2024 -0.158993 -0.174989 1.77 0.93
0 0 53.8135 36.1008 -0.0743769 -0.0489536 1.65 1.14
0 0 57.6685 35.0416 -0.0153992 0.159374 1.77 0.93
0 0 61.6488 34.705 0.0144811 -0.433719 1.77 1.38
0 0 65.3123 33.1821 -0.0472436 -0.245569 1.62 1.26
0 0 68.9977 31.668 -0.0493732 -0.0733766 1.08 1.05
0 0 32.2542 37.8713 -0.24595 0.0710796 1.77 1.2
0 0 35.8268 36.1713 -0.246739 0.0397534 1.77 1.29
0 0 37.9074 32.7788 0.0919595 0.115143 1.53 1.38
0 0 38.5791 28.8688 -0.154593 0.02306 1.68 1.5
0 0 40.5193 25.58 -0.107686 0.134937 0.96 1.77
0 0 43.9163 27.1015 -0.172718 0.078664 1.38 1.77
0 0 42.6706 30.5825 0.0871871 0.177337 1.35 0.99
0 0 39.6229 33.0194 0.131457 0.0934143 1.59 1.02
0 0 37.7566 36.5521 -0.125663 0.0162017 1.59 0.93
0 0 36.1342 40.2032 0.124045 0.142765 1.65 1.11
0 0 35.1827 44.025 -0.0438432 0.143609 1.77 1.26
0 0 17.1995 17.1618 -0.0240816 -0.094802 1.77 0.96
0 0 15.2443 20.5379 0.0538046 0.102659 1.68 1.08
0 0 11.9603 22.8309 -0.00106885 0.130242 1.77 1.11
0 0 10.405 26.478 -0.418253 -0.00233954 1.77 1.05
0 0 10.9674 30.4238 0.211895 -0.053721 1.77 1.11
0 0 11.6133 34.3727 0.228003 0.0108775 1.68 0.99
0 0 9.1928 37.36 -0.0288327 -0.017333 1.77 1.23
0 0 5.48093 36.3393 0.068014 -0.192352 1.68 1.77
0 0 3.56116 32.8408 -0.0582197 -0.162688 1.74 1.77
0 0 1.54403 29.3902 0.255029 -0.409336 1.77 1.74
-1 0 73.8449 26.6552 -0.0662917 -0.0494534 1.77 1.77
-1 0 70.2155 24.9868 0.101264 -0.135071 1.74 1.74
0 0 63.9841 60.2645 0.102027 0.0749647 0.93 0.93
0 0 64.348 56.3456 0.0899359 -0.0492664 0.93 0.96
0 0 64.0018 52.4156 0.363328 -0.261291 0.96 1.02
0 0 61.1389 49.6986 -0.074936 0.0918656 1.14 1.35
0 0 57.2796 49.9572 -0.0694065 -0.0199954 1.14 1.08
0 0 54.5619 52.8283 -0.0442258 0.0426183 1.56 1.44
0 0 53.5661 56.6848 0.0633275 0.0886321 1.77 1.5
0 0 54.014 60.5746 0.140855 -0.0111353 1.77 1.2
0 0 56.5568 63.6543 0.22545 -0.160367 1.77 1.53
0 0 58.5484 67.1177 0.0766941 -0.0309038 1.74 1.2
0 0 60.1773 70.7686 0.139417 -0.0170047 1.65 0.93
0 0 23.0305 62.2683 0.0671419 0.275702 1.59 1.53
0 0 19.6954 60.0683 0.116104 0.0224839 1.77 1.44
0 0 15.772 59.4242 -0.0914429 0.281644 1.77 1.2
0 0 12.1546 60.9273 -0.0449469 0.11667 1.77 1.26
0 0 10.7283 64.6457 0.0642324 -0.0171838 1.77 1.02
0 0 10.0403 68.5843 -0.0735564 -0.100005 1.77 1.17
0 0 8.90075 72.4217 0.396685 0.133471 1.77 1.38
0 1 6.67362 0.52535 0.296662 0.217619 1.77 1.71
0 0 27.1714 54.0152 0.129533 -0.122989 1.02 1.08
0 0 23.8348 51.828 -0.128904 0.13249 1.32 1.17
0 0 20.3366 49.8953 0.0791549 -0.19727 1.02 0.96
0 0 16.7416 48.1622 -0.102369 -0.0200924 1.2 1.2
0 0 12.7733 47.941 -0.0984576 0.0647909 0.93 1.11
0 0 8.77642 48.0343 -0.0553511 0.107971 0.93 1.32
0 0 4.80238 47.7581 0.0191828 -0.180141 1.23 1.77
0 0 1.60919 45.4593 0.196869 -0.276015 1.26 1.65
-1 0 73.988 42.6436 0.154775 -0.195942 1.29 1.62
-1 0 71.2408 39.7347 0.406726 -0.381268 1.56 1.71
0 0 59.5795 55.0322 0.249842 0.103129 1.77 1.74
0 0 58.9565 58.8993 0.220118 -0.0104181 1.74 1.77
0 0 59.719 62.8244 0.235213 -0.0435122 1.77 1.74
0 0 61.6668 66.3181 0.051975 -0.0110056 1.71 1.74
0 0 63.1453 70.0224 0.0723346 -0.0130908 1.77 1.77
0 0 63.275 74.0167 0.342781 -0.0958491 1.77 1.77
0 1 66.3779 0.780476 0.109069 -0.224928 1.77 1.77
0 0 68.9716 73.0412 0.415981 0.102605 1.62 1.77
0 0 71.1901 69.7975 -0.056557 -0.263316 1.77 1.77
0 0 74.5998 67.7333 0.175557 0.0721879 1.17 1.77
1 0 7.25556 53.6978 0.0545159 -0.159177 1.77 1.5
1 0 4.61653 56.6586 0.172199 0.0142137 1.71 1.38
1 0 3.5401 60.4993 0.240617 0.0663697 1.77 1.38
1 0 2.32891 64.278 0.496136 0.0999215 1.74 1.71
1 0 1.00392 68.0485 -0.326846 -0.331209 1.77 1.59
0 0 73.9512 71.3496 0.413063 0.0994508 1.74 1.47
0 0 71.7697 74.7035 0.116862 -0.0340197 1.41 1.68
0 1 69.295 2.6328 0.162623 0.10847 1.11 1.23
0 1 65.7421 4.46408 0.191606 0.105118 1.38 1.29
0 0 57.8709 48.5911 -0.0455828 0.015604 0.93 0.93
0 0 54.465 50.6276 -0.0306464 -0.0298083 1.29 0.93
0 0 52.4671 54.0169 0.234139 0.0623427 1.11 0.99
0 0 51.8676 57.9713 0.100399 0.0394837 1.59 1.17
0 0 52.6972 61.8011 0.149001 -0.0281558 1.71 1.26
0 0 55.3951 64.7519 0.048763 0.0764223 1.71 1.26
0 0 57.2559 68.2925 -0.250499 0.21199 1.77 1.2
0 0 59.1214 71.8244 -0.0963921 0.109593 1.56 0.93
0 1 60.3283 0.420774 0.0256116 0.194921 1.77 1.77
0 1 62.4539 3.79203 0.217248 0.164958 1.77 1.5
0 -1 55.4364 75.1169 -0.262249 -0.0163862 1.77 1.26
0 0 56.9385 3.61968 0.0407521 -0.156037 1.77 0.93
0 0 58.8455 7.12022 0.0745597 -0.149192 1.77 0.93
0 0 59.7283 11.0178 -0.332864 -0.062206 1.68 0.96
0 0 58.6507 14.7373 0.156719 -0.0292744 1.77 1.38
0 0 54.9183 15.787 0.113704 -0.222069 1.77 1.23
0 0 50.9639 15.3173 0.0402959 -0.0629762 1.77 0.99
0 0 47.0142 14.7059 0.0965139 -0.298755 1.77 1.08
0 0 43.0186 14.6765 0.133596 -0.148383 1.77 1.29
0 0 39.0226 14.5298 0.0801399 -0.00977173 1.74 1.26
0 0 35.1548 13.6959 -0.117452 0.0499691 1.74 1.59
0 0 31.8326 11.5078 -0.189911 0.0803325 1.77 1.77
0 0 50.6335 19.9676 0.0446301 0.0118637 1.11 1.74
0 0 54.5342 20.8156 0.0148462 0.0928631 1.77 1.71
0 0 58.4931 21.1733 -0.00429842 0.145464 1.62 1.77
0 0 62.3681 20.3693 -0.034714 -0.00534082 1.77 1.77
0 0 64.9337 17.3358 -0.215623 -0.195722 1.65 1.77
0 0 66.6197 13.7095 -0.0401144 -0.199302 1.65 1.59
0 0 69.6478 11.1797 0.117211 -0.118016 1.74 1.71
0 0 73.6167 11.1758 0.254636 0.305818 1.65 1.77
1 0 2.2721 12.2564 0.342539 0.153447 1.56 1.62
1 0 6.21827 12.9182 0.395924 0.0228928 1.74 1.74
0 0 66.8965 25.3405 -0.0765256 0.112402 1.77 1.68
0 0 63.1188 26.6395 -0.225259 -0.273324 1.77 1.74
0 0 59.3195 27.8842 -0.0588369 0.0856143 1.74 1.65
0 0 55.4384 28.8237 -0.0722476 -0.283175 1.77 1.74
0 0 51.5954 29.9144 0.00619033 -0.104144 1.77 1.71
0 0 47.6959 30.81 -0.07209 -0.0306984 1.77 1.71
0 0 44.3176 32.8971 -0.0544117 0.0747704 1.71 1.59
0 0 41.4959 35.7222 0.14882 0.14243 1.77 1.68
0 0 39.8406 39.3558 -0.175697 -0.0471399 1.77 1.68
0 0 38.5111 43.1104 -0.0767905 0.0419001 1.77 1.77
0 0 58.3365 43.3141 -0.00447224 -0.0616456 0.96 1.77
0 0 54.3986 43.4905 -0.105052 -0.12516 1.41 1.77
0 0 50.9483 45.4513 -0.0157648 0.0865731 1.47 1.77
0 0 48.1238 48.2737 0.0871882 0.117047 1.77 1.77
0 0 46.3769 51.8435 -0.0979192 -0.019527 1.77 1.77
0 0 44.7666 55.4924 -0.0355794 0.0587584 1.77 1.74
0 0 41.5802 57.8639 -0.0154933 0.125433 1.5 1.77
0 0 37.6278 57.6613 -0.144615 0.268947 1.53 1.77
0 0 33.9272 56.15 -0.170864 0.335248 1.74 1.71
0 1 47.8878 7.2835 0.264577 0.0282863 0.99 1.62
0 1 43.8893 7.41596 0.127193 -0.185233 0.93 1.77
0 1 39.9468 7.13617 0.119498 0.145179 0.96 1.53
0 1 36.291 5.59008 0.136524 0.108251 1.08 1.62
0 1 32.5508 4.49656 0.240488 -0.323875 1.2 1.59
0 1 29.258 2.39283 0.412082 -0.505996 1.77 1.74
0 0 26.3465 74.8603 -0.0549259 -0.0181678 1.71 1.74
0 0 23.309 72.2943 -0.35087 0.175455 1.74 1.77
0 0 23.4049 68.3875 -0.0849385 0.0378589 1.71 1.65
0 0 12.4227 13.2335 0.0383168 0.0481506 0.99 1.17
0 0 15.4256 10.7797 0.086216 -0.0376226 1.02 1.26
0 0 18.7281 12.6368 0.00915645 0.033307 1.68 1.53
0 0 19.9597 16.4249 0.00171335 -0.0214367 1.71 1.41
0 0 19.2382 20.3314 0.106359 -0.0183342 1.77 1.77
0 0 16.6418 23.3251 0.217762 0.250097 1.74 1.77
0 0 13.6653 25.8713 0.074593 -0.00788056 1.77 1.77
0 0 13.9094 29.7999 0.234125 -0.0862668 1.77 1.65
0 0 14.4704 33.7588 0.180804 -0.0411328 1.77 1.74
0 0 13.6188 37.6443 0.0716988 -0.0566552 1.77 1.77
0 0 47.963 60.426 -0.213886 -0.0394112 1.77 1.59
0 0 45.4828 63.5352 -0.153288 -0.0314738 1.77 1.77
0 0 42.7462 66.4245 0.0530393 0.134208 1.74 1.77
0 0 41.4432 70.1984 -0.0989979 0.0376485 1.74 1.77
0 0 38.7604 73.1222 0.161904 0.0878791 1.74 1.74
0 1 38.1889 1.51477 0.0953112 0.0501227 1.77 1.77
0 1 41.7076 3.2474 0.0374607 0.063557 1.77 1.77
0 1 45.6664 3.13981 0.112206 -0.100618 1.77 1.74
0 1 49.5883 2.33474 0.177586 -0.086765 1.77 1.71
0 -1 54.3075 71.2593 -0.171216 0.0212296 1.62 0.99
0 -1 53.5038 75.0446 0.118385 0.0537238 1.77 1.29
0 0 54.7407 3.64562 0.0800826 -0.011021 1.77 1.14
0 0 55.4861 7.53738 0.0187264 -0.0298423 1.71 0.96
0 0 56.58 11.2034 0.0377229 0.00413396 1.59 1.08
0 0 53.1264 12.4753 0.0163321 -0.0014199 1.62 0.96
0 0 49.6496 10.5786 0.105959 0.094942 1.77 0.96
0 0 45.6567 10.4093 0.0915362 0.032093 1.74 0.93
0 0 41.6583 10.4941 0.0382376 -0.121866 1.65 0.99
0 0 37.7221 9.89194 0.0728573 0.0581835 1.74 0.99
0 0 34.1802 8.06978 0.0773361 0.190715 1.74 0.93
0 0 5.75904 39.7215 -0.145015 0.135833 1.41 1.5
0 0 9.05831 41.8915 -0.102632 0.088053 1.77 1.32
0 0 13.0373 42.1933 -0.0390171 -0.0835866 1.59 1.2
0 0 17.0388 42.1176 0.0519349 -0.0482919 1.71 1.14
0 0 20.5815 43.8454 -0.00230826 0.107949 1.71 1.29
0 0 23.9785 45.9462 -0.217671 0.337992 1.71 1.17
0 0 27.0384 48.5205 -0.0742667 0.081103 1.77 1.2
0 0 30.3015 50.83 0.00836029 -0.0251357 1.77 1.08
0 0 32.4203 54.1042 -0.267744 0.158554 1.65 1.41
0 0 31.55 57.936 -0.166998 0.0694865 1.74 1.68
-1 0 72.537 39.1715 -0.0874099 -0.178922 1.29 1.2
0 0 0.166377 41.9983 0.118157 -0.270104 1.47 1.32
0 0 2.79013 45.0201 -0.0650354 -0.0786684 1.02 1.29
0 0 6.26301 46.9056 -0.095348 -0.0730642 1.08 1.11
0 0 10.2552 47.0149 -0.045987 0.14656 0.96 0.96
0 0 14.2448 46.7742 0.00999771 0.0860179 0.96 0.99
0 0 18.1592 47.4481 -0.0162889 0.0693676 0.99 1.05
0 0 21.6004 49.4781 -0.0246166 0.145748 0.93 0.93
0 0 11.2467 43.7145 -0.214914 0.0365477 1.08 1.77
0 0 7.25083 43.6582 -0.165842 0.0940042 0.93 1.77
0 0 3.96187 41.4902 -0.334632 0.00286852 1.02 1.77
0 0 1.56755 38.303 -0.118739 -0.315098 0.93 1.74
-1 0 74.899 34.7731 -0.03176 -0.344335 1.26 1.77
-1 0 71.5703 32.6322 -0.135426 0.0358071 1.29 1.62
-1 0 67.8013 33.6251 -0.0852759 -0.227977 0.93 1.47
-1 0 65.6657 36.9551 0.297117 -0.00645074 1.29 1.77
0 0 21.4202 68.8426 -0.0435993 0.355973 1.77 1.77
0 0 20.3287 65.0534 -0.147906 0.444023 1.77 1.74
0 0 17.1535 62.7295 0.195264 0.15395 1.77 1.74
0 0 13.9873 64.672 0.287112 -0.0745944 1.77 1.77
0 0 13.2601 68.6019 0.0370227 -0.117109 1.77 1.77
0 0 13.453 72.5193 0.0587625 -0.000356602 1.77 1.74
0 0 16.9394 74.1401 0.156088 -0.19967 1.65 1.74
0 0 20.932 74.3975 0.188654 -0.122419 1.62 1.77
0 1 24.6712 0.478559 0.1371 0.173304 1.74 1.65
0 1 27.549 3.24921 0.472258 -0.185462 1.71 1.74
0 1 28.399 3.78452 0.185208 0.137684 1.77 1.77
#number of sheets
80
#natural spring lengths9.9999999999998535e-01 2
1 2
1 2
1 2
1 2
1 2
1 2
1 2
1 2
1 2
1 2
1 2
1 2
1 2
1 2
1 2
1 2
1 2
1 2
1 2
1 2
1 2
1 2
1 2
1 2
1 2
1 2
1 2
1 2
1 2
1 2
1 2
1 2
1 2
1 2
1 2
1 2
1 2
1 2
1 2
1 2
1 2
1 2
1 2
1 2
1 2
1 2
1 2
1 2
1 2
1 2
1 2
1 2
1 2
1 2
1 2
1 2
1 2
1 2
1 2
1 2
1 2
1 2
1 2
1 2
1 2
1 2
1 2
1 2
1 2
1 2
1 2
1 2
1 2
1 2
1 2
1 2
1 2
1 2
1 2