File: Texture/XRD/Input/x250.dat
# time [pico sec]
1000
# dry density [g/cm^3], porosity [%]
1.608733 34.8163
#Xa[1:2]
0.000000e+00 0.000000e+00
#Wd[1:4]
70 70 0.0000000000000000e+00 0.0000000000000000e+00
#np
3194
# irev[1:2] x1   x2    v1   v2
0 0 12.6283 36.2156 0.27087 -0.130115 1.77 1.77
0 0 14.0685 32.5042 0.0336966 -0.101278 1.71 1.77
0 0 13.5214 28.5537 0.130439 -0.0822454 1.38 1.74
0 0 16.1697 26.7875 0.0790749 0.263762 1.29 1.2
0 0 15.5938 30.5471 -0.261905 -0.0165948 1.62 0.96
0 0 16.0044 34.5054 0.0378842 -0.0696758 1.74 1.29
0 0 18.2667 37.6841 -0.120416 0.206892 1.53 0.93
0 0 21.5565 39.959 0.00566508 0.061354 1.5 0.93
0 0 24.7053 42.4299 0.230231 -0.337252 1.08 1.14
0 0 28.1994 44.3784 -0.0193819 -0.0612401 1.17 0.96
0 0 31.1887 47.0229 0.0864265 -0.181151 0.93 1.08
0 0 33.4687 50.2974 -0.228118 0.113006 1.47 1.38
0 0 42.8228 60.8039 0.020841 -0.016934 1.77 1.74
0 0 45.7218 58.0771 0.130135 -0.0191679 1.77 1.77
0 0 47.5306 54.6 -0.00901374 -0.0510982 1.35 1.74
0 0 46.9247 50.6736 -0.0942427 0.0174236 1.32 1.71
0 0 47.9393 46.8994 -0.30517 -0.0835143 1.02 1.5
0 0 50.1965 43.5963 -0.0948163 0.146111 0.96 1.29
0 0 53.6685 42.5319 -0.13215 0.421911 1.38 1.5
0 0 56.6363 45.1466 0.189616 0.230319 0.93 0.99
0 0 58.9921 48.3724 0.358581 0.133293 1.17 1.02
0 0 60.6938 51.9719 0.0224538 0.15767 1.05 1.44
1 0 8.11805 16.9079 -0.0781289 0.280355 1.02 1.11
1 0 4.39683 15.4652 0.00847012 -0.195962 1.5 1.11
1 0 0.705184 13.9466 -0.131273 0.207559 1.53 1.5
0 0 66.8978 12.8057 -0.0125652 -0.27481 1.08 1.56
0 0 63.8613 15.1519 -0.424 -0.185424 0.99 1.65
0 0 64.7496 18.6642 0.437752 -0.312536 1.74 1.56
0 0 68.5253 19.3596 0.0726259 -0.320071 1.68 1.53
1 0 2.41536 19.7447 -0.0989837 -0.175565 1.74 1.59
1 0 4.83531 22.8319 0.330326 -0.440769 1.38 1.56
1 0 6.18468 26.5009 -0.187271 -0.0525146 1.59 1.56
1 0 6.84978 30.4351 -0.459876 0.106563 1.5 1.74
0 0 5.3269 37.3429 -0.0525976 0.0558998 1.74 1.77
0 0 9.17189 37.7717 -0.0646629 -0.150046 1.71 1.77
0 0 13.1603 37.8614 -0.153729 0.291793 1.77 1.71
0 0 16.5638 39.834 -0.0900703 0.155486 1.77 1.65
0 0 19.8816 42.0547 0.00427084 -0.0420946 1.59 1.5
0 0 23.14 44.3386 -0.254416 0.334981 1.77 1.56
0 0 26.5 46.5062 0.0758036 -0.171693 1.77 1.53
0 0 29.4461 49.1712 0.325009 -0.212239 1.74 1.77
1 0 0.51678 45.4198 -0.58609 0.35177 1.74 1.74
1 0 1.52315 49.2437 0.189155 -0.0272878 1.65 1.77
1 0 0.874081 53.1737 0.151612 -0.0577287 1.44 1.38
1 0 0.345809 57.1357 0.329455 -0.200238 1.62 1.77
1 0 0.244464 61.1368 -0.345261 -0.169803 1.47 1.56
0 0 67.9362 64.3844 0.0819573 0.089908 1.41 1.47
0 0 64.52 66.01 -0.0369488 -0.268766 1.71 1.74
0 0 60.8137 64.5577 0.232701 -0.353637 1.53 1.74
0 0 58.6184 61.3447 0.261561 -0.14606 1.77 1.77
0 0 58.7459 57.3497 0.0211237 0.0846186 1.77 1.71
0 0 57.4868 53.5684 -0.255642 0.485541 1.77 1.77
0 0 15.1971 23.1891 -0.0454432 0.530574 1.77 1.77
0 0 18.6746 21.5745 -0.0777236 0.162761 0.93 1.77
0 0 20.3224 17.9261 0.221646 0.162494 0.93 1.77
0 0 21.6637 14.1582 -0.573229 -0.262867 0.96 1.77
0 0 22.1638 10.2754 0.127886 -0.13283 0.96 1.77
0 0 19.2611 7.87825 0.242975 -0.0479521 0.93 1.62
0 0 15.5988 9.03195 0.0987314 -0.356851 1.02 1.29
0 0 13.5156 12.4174 -0.365918 -0.393794 1.29 1.41
0 0 10.9394 15.3078 0.214455 0.0349433 1.23 1.35
0 0 7.11733 15.4437 0.206837 0.273246 0.93 0.96
0 0 3.46047 13.9304 0.253057 0.26387 0.93 0.93
1 0 15.8748 5.7348 0.16894 -0.0644198 0.99 1.26
1 0 13.0598 8.57054 0.000565633 0.0567704 0.93 1.17
1 0 9.7902 10.7775 -0.0235184 0.102476 1.02 1.56
1 0 5.87684 10.3563 -0.197559 0.1558 0.93 1.77
1 0 2.01821 9.50691 -0.0721818 -0.446519 1.02 1.74
0 0 68.1279 8.63216 -0.199609 0.116461 1.2 1.74
0 0 64.2339 8.95395 -0.184114 -0.394005 1.77 1.77
0 0 61.3352 11.7051 -0.188301 -0.146903 1.77 1.77
0 0 58.5982 14.6215 0.190373 0.277398 1.77 1.77
0 0 23.2822 54.9872 -0.0422724 0.00589351 1.11 1.77
0 0 26.192 57.6905 -0.166829 0.194933 1.29 1.65
0 0 29.967 56.6186 -0.175571 -0.0229124 1.05 1.62
0 0 33.9212 56.3644 -0.10547 -0.00629006 0.96 1.17
0 0 37.7045 57.6632 -0.00422858 0.0321144 1.2 1.32
0 0 41.4922 56.5574 0.0570453 0.134218 1.2 1.02
0 0 44.5637 54.1458 -0.459372 -0.367406 1.38 1.5
0 0 45.2698 50.2675 -0.24706 -0.0999138 1.41 1.35
0 0 46.5833 46.5478 0.109805 -0.0741311 1.35 1.35
0 0 48.7249 43.1778 0.0514816 -0.162726 1.71 1.41
0 0 55.3534 22.6762 0.161369 -0.255933 1.77 1.23
0 0 51.4291 23.4289 -0.065695 -0.359157 1.77 1.02
0 0 47.748 24.9741 -0.0842221 0.0446774 1.68 1.11
0 0 43.8237 25.6867 0.00172893 -0.0964837 1.77 1.74
0 0 40.395 27.6933 -0.0639107 -0.285396 1.68 0.96
0 0 37.3045 30.2181 0.152289 -0.0131721 1.65 1.41
0 0 35.5574 33.8181 -0.11306 -0.0923917 1.74 1.05
0 0 34.4735 37.6533 -0.0668479 -0.0577622 1.68 1.26
0 0 33.0588 41.3781 0.153432 0.0357619 1.77 1.74
0 0 33.2332 45.2351 -0.129948 -0.0117522 1.77 1.71
0 -1 51.6231 67.9071 -0.0724461 0.0848247 1.77 1.02
0 0 54.93 0.0411036 -0.15674 0.439969 1.74 1.14
0 0 58.2257 2.25478 -0.0387621 0.181422 1.77 1.02
0 0 59.188 6.12277 0.397557 0.16863 1.77 1.17
0 0 57.9468 9.92409 -0.0323383 0.106061 1.74 0.96
0 0 55.4068 12.9433 0.12027 0.439846 1.68 1.68
0 0 51.7114 14.3188 -0.069718 0.0912953 1.77 1.71
0 0 47.7324 13.859 -0.0877963 -0.497152 1.68 1.68
0 0 43.7422 13.9936 -0.0515948 0.38777 1.77 1.47
0 0 39.7947 14.6274 -0.0484557 -0.151735 1.77 1.62
0 0 35.7932 14.8009 0.110397 -0.227375 1.77 1.5
0 0 32.1998 16.3739 0.285725 0.0439511 1.77 1.74
0 0 62.8607 56.1573 0.381147 0.180808 1.47 1.26
0 0 61.5888 59.9086 -0.142996 0.183312 1.53 1.53
0 0 63.8476 62.9878 0.125232 -0.0432552 1.41 1.62
0 0 67.3567 61.5734 -0.202388 -0.0603587 1.11 1.32
0 0 67.9705 57.7021 -0.483672 0.0785928 1.02 1.77
0 0 68.9331 53.8256 -0.217622 0.0668013 1.74 1.77
0 0 69.5562 49.88 -0.149452 0.22221 1.47 1.77
0 0 68.968 45.9445 0.17369 -0.12839 1.77 1.77
0 0 66.9858 42.4785 0.318992 -0.270204 1.77 1.77
0 0 65.0848 38.9679 -0.421608 0.199217 1.71 1.77
0 0 51.1162 8.55525 0.144849 -0.109428 1.77 1.11
0 0 47.4807 6.90263 0.0889297 0.265692 1.77 0.99
0 0 43.5777 7.14368 0.231483 0.0983021 1.5 0.96
0 0 39.6626 7.94512 0.00158736 0.0220388 1.71 0.93
0 0 35.7433 7.5327 -0.109757 -0.207871 1.71 1.29
0 0 31.8058 6.95448 -0.265319 0.310344 1.77 1.11
0 0 28.6662 4.86762 0.153485 -0.0979138 1.38 1.38
0 0 26.0091 2.00098 -0.126507 0.404174 1.05 1.77
0 0 22.2483 0.660867 -0.0304035 0.405912 1.74 1.5
0 0 39.4614 59.9002 -0.234416 -0.0217301 1.32 1.23
0 0 38.7806 63.8278 -0.162917 0.0186087 1.77 1.44
0 0 35.9525 66.6024 0.269561 0.407131 1.74 1.2
0 1 34.4216 0.0859358 0.127578 0.0928145 1.77 1.08
0 1 36.6084 3.33996 0.207461 -0.0359185 1.74 1.26
0 1 40.4713 4.0973 0.205773 -0.287534 1.62 1.17
0 1 44.2357 2.84908 0.111388 -0.231144 1.62 1.26
0 1 48.162 2.25098 0.145608 0.0258896 1.74 1.26
0 1 51.5814 4.3114 -0.0280001 0.132364 1.77 1.47
0 0 39.1314 36.7163 0.0293748 -0.14022 1.74 1.77
0 0 41.2039 33.3232 -0.134111 -0.328027 1.77 1.77
0 0 44.3473 30.8707 0.0443387 -0.259161 1.77 1.77
0 0 48.1605 29.6674 0.0112716 -0.280417 1.77 1.77
0 0 52.0424 28.7093 0.0269226 -0.0118913 1.74 1.77
0 0 55.8059 27.3754 -0.0536411 -0.349168 1.77 1.74
0 0 59.6019 26.2665 0.0379152 0.1423 1.77 1.77
0 0 63.3647 25.0872 0.0707856 0.0885806 1.74 1.74
0 0 67.3123 24.9121 0.0751992 0.37813 1.77 1.77
0 0 69.9545 27.6783 -0.297347 0.190923 1.77 1.77
1 0 1.20557 31.4706 -0.495549 0.144921 1.65 1.74
0 0 53.8243 35.0015 0.108672 -0.418942 1.77 1.29
0 0 57.4223 36.5242 0.0981076 -0.113891 1.65 1.53
0 0 59.7738 39.7559 0.0249945 -0.0210035 1.77 1.56
0 0 61.9721 43.0971 -0.256875 0.155243 1.77 1.11
0 0 63.5188 46.7839 0.0158941 0.0977076 1.77 1.77
0 0 64.6552 50.6066 -0.0869497 0.125231 1.77 1.68
0 0 65.1195 54.5517 -0.00839743 0.00788592 1.77 1.65
0 0 63.3974 58.1563 0.42699 0.298841 1.77 1.74
0 0 64.7016 61.4518 0.46553 -0.334637 1.77 1.77
0 0 66.0799 58.3356 0.0700083 -0.154444 1.68 1.77
0 0 13.6628 50.1803 0.272171 -0.0182049 1.35 1.74
0 0 17.0307 52.328 0.242938 0.149878 1.02 1.74
0 0 20.058 54.9402 0.423159 -0.111893 1.11 1.65
0 0 22.0584 58.3983 0.430464 -0.241823 1.5 1.59
0 0 25.4447 60.4949 0.0863592 0.21237 1.77 1.74
0 0 29.3305 60.2431 0.239827 -0.144378 1.77 1.68
0 0 32.9509 58.7433 0.368641 -0.0648356 1.71 1.65
0 0 36.0676 60.9715 0.630444 -0.00891255 1.59 1.2
0 0 34.1447 64.2439 0.0376823 -0.0685568 1.56 1.11
0 0 31.6011 67.2846 0.0393858 -0.127285 1.47 0.99
0 1 31.8667 1.12848 0.295736 -0.237008 1.38 1.32
0 0 48.4878 11.6052 -0.0766695 -0.1089 1.62 0.96
0 0 44.5395 11.0183 -0.0624096 -0.611057 1.77 1.08
0 0 40.6754 11.9512 0.0287213 -0.139231 1.77 0.93
0 0 36.6845 11.9414 -0.000827788 0.120301 1.77 0.93
0 0 32.7705 11.1694 -0.0767141 0.521108 1.74 1.14
0 0 28.8985 11.814 -0.184093 -0.00329493 1.77 1.77
0 0 26.7894 15.221 -0.310625 0.0435108 1.77 1.74
0 0 25.0512 18.8329 -0.635199 -0.0507118 1.77 1.32
0 0 23.0933 22.3016 0.0863114 0.224063 1.74 1.14
0 0 22.6745 60.7926 0.171226 -0.474152 1.2 0.96
0 0 19.8414 57.994 -0.137933 0.253143 1.77 1.29
0 0 16.3451 56.0389 0.200843 0.000972553 1.71 1.2
0 0 12.463 55.4255 -0.0211033 -0.0109045 1.77 1.23
0 0 8.8952 56.4116 0.36636 0.361711 1.77 1.29
0 0 8.61414 60.3799 0.314098 0.202608 1.77 0.96
0 0 9.51397 64.2702 0.293034 0.125602 1.77 0.93
0 0 9.09275 68.2061 0.387552 0.238835 1.77 1.38
0 1 6.71589 1.42224 -0.441706 -0.145818 1.77 1.74
0 1 7.75023 4.77963 0.184087 -0.0799729 1.77 1.08
0 1 11.2277 3.37927 0.415622 -0.120396 0.93 1.23
0 0 19.7761 65.2342 0.272379 -0.968585 1.77 1.77
0 0 17.9907 61.9194 -0.0354729 -0.256997 1.77 1.74
0 0 15.9311 58.7218 -0.194775 0.0720128 1.77 1.65
0 0 12.1505 59.1536 0.169124 0.177416 1.77 1.62
0 0 11.795 62.9602 0.0308589 0.184336 1.77 1.23
0 0 12.7659 66.8317 0.893743 -0.138882 1.77 1.53
0 1 11.3166 0.475406 0.0108128 -0.165751 1.77 1.71
0 0 52.8216 49.1471 0.13181 0.257632 1.77 1.44
0 0 53.8657 52.9525 -0.274504 0.247521 1.77 1.35
0 0 54.9947 56.7833 0.0965708 0.1091 1.77 1.08
0 0 55.444 60.7106 0.0821813 0.0680568 1.77 1.05
0 0 56.4299 64.5297 0.189876 -0.160851 1.77 1.29
0 0 59.1703 67.3917 0.122441 -0.400081 1.77 1.59
0 1 62.1393 0.0500639 -0.0301692 0.0221574 1.77 1.29
0 1 65.5522 1.90966 0.0338392 -0.261319 1.74 1.74
0 0 68.8562 69.8531 0.308875 0.264643 1.5 1.53
1 0 0.599741 66.2654 0.442524 0.509069 1.62 1.59
0 0 23.9612 63.5352 -0.107174 0.0501484 1.35 1.5
0 0 27.6599 62.4541 0.244647 0.334322 1.47 1.29
0 0 31.1912 60.6197 -0.114031 -0.458399 1.62 1.08
0 0 34.6053 61.277 0.151015 -0.303334 1.32 0.96
0 0 32.2263 64.2521 -0.482423 -0.550623 1.35 1.11
0 0 29.9033 67.4911 0.117601 0.285452 1.29 1.77
0 0 26.2842 66.9345 -0.196206 -0.031789 1.77 1.02
0 0 27.8953 63.7964 -0.0772447 -0.460537 1.77 1.41
0 0 31.7504 62.8651 -0.207419 -0.552019 1.68 1.74
0 0 14.13 41.3337 -0.161202 0.342644 1.71 1.05
0 0 17.443 43.5683 0.190655 -0.21575 1.68 0.93
0 0 20.6425 45.9423 -0.0315451 0.113177 1.74 0.93
0 0 23.8672 48.2922 0.208461 0.00443913 1.62 1.14
0 0 27.1109 50.6058 0.379454 -0.0463241 1.62 0.96
0 0 25.928 53.9649 0.108048 0.00288197 0.99 1.77
0 0 22.6007 51.9769 0.00226865 0.18155 1.26 0.96
0 0 19.151 49.9646 -0.185982 0.233486 1.5 1.38
0 0 15.6809 47.9886 -0.27957 0.212564 1.44 1.02
0 0 12.1413 46.1585 -0.240881 0.113281 1.62 0.93
0 0 8.17098 45.8324 -0.128109 -0.160711 1.44 0.99
0 0 4.20763 46.2907 -0.0615432 -0.136642 1.23 1.26
0 0 0.841126 8.11783 -0.206479 0.612476 1.29 1.47
0 0 4.77933 8.74462 -0.167526 0.359789 1.17 1.14
0 0 8.65792 9.5325 0.0680666 0.640912 1.59 1.35
0 0 12.2058 7.84267 0.136474 0.0261593 1.23 0.99
0 0 15.1198 5.09275 0.259639 -0.0755475 1.23 1.17
0 0 18.9678 4.81368 0.35457 -0.12618 0.99 0.96
0 0 22.4739 6.73373 0.146609 -0.125452 1.71 1.11
0 0 24.5839 10.0698 0.272281 -0.101544 1.32 1.05
0 0 24.0212 14.03 0.380655 0.0716249 1.62 1.71
0 0 22.6404 17.781 -0.00429779 -0.048726 1.26 1.05
0 0 44.9119 41.4469 -0.069476 -0.131941 0.93 0.93
0 0 42.3769 44.5384 -0.0241963 -0.086369 0.93 1.5
0 0 40.501 48.0648 0.161459 0.00834677 1.11 1.17
0 0 40.1887 52.01 -0.300385 -0.124867 1.68 1.05
0 0 36.5791 52.853 -0.0339119 0.215001 1.77 1.02
0 0 32.7448 51.7233 0.000421877 -0.21772 1.71 1.62
0 0 30.6879 48.3893 0.198487 -0.124089 1.5 1.23
0 0 27.9878 45.5088 0.11161 -0.188463 1.05 1.74
0 0 24.5311 43.5133 0.0474903 0.0198504 1.05 1.74
0 0 21.3123 41.1582 0.227943 -0.208089 0.93 1.77
0 0 18.0127 38.9018 0.0435387 0.0330722 0.99 1.77
0 0 14.9953 36.2912 0.0529753 0.0211294 1.23 1.77
1 0 5.52381 30.6629 0.128682 -0.250182 1.38 1.77
1 0 4.50179 26.7959 0.378942 -0.174521 1.71 1.62
1 0 3.242 23.0707 0.25323 -0.107113 1.62 1.77
1 0 0.18101 20.6767 0.0475044 -0.364595 1.41 1.74
0 0 66.2009 20.8974 0.0674514 -0.255241 1.26 1.56
0 0 62.3608 19.9183 -0.183262 -0.634225 1.68 1.5
0 0 58.5933 21.2639 -0.15462 -0.0515207 1.62 1.38
0 0 54.6013 21.411 -0.1446 0.114298 1.56 1.05
0 0 50.7197 22.2359 0.184628 0.691178 1.74 0.96
0 0 46.9571 23.5641 0.00905577 0.307322 1.74 1.59
0 0 42.9664 23.7384 -0.0239435 -0.0500159 1.77 1.77
0 0 39.4151 21.9293 0.0040867 -0.17211 1.74 1.68
0 0 60.6372 19.0421 0.065677 -0.205769 0.99 1.26
0 0 56.7829 20.0277 0.0120345 0.245816 0.93 1.11
0 0 52.784 20.0312 -0.143256 -0.0470246 1.05 1.23
0 0 48.8118 20.4356 -0.171237 0.388673 1.17 1.05
0 0 44.8371 20.8843 -0.286096 0.436093 0.96 0.93
0 0 41.2205 19.3246 -0.291484 0.128814 1.77 1.2
0 0 37.3187 18.9812 -0.0540532 -0.0590618 1.77 0.99
0 0 34.012 21.0094 0.100852 0.0223365 1.77 1.11
0 0 31.8635 24.3781 0.209117 0.230666 1.77 1.35
0 0 29.8376 27.8299 -0.121225 0.168065 1.77 1.23
-1 0 67.1537 32.7828 0.139966 0.0145898 1.68 1.77
-1 0 64.416 30.3773 -0.297912 0.166364 1.77 1.77
-1 0 61.7326 33.1459 -0.378452 0.0732151 1.77 1.77
-1 0 62.187 37.0872 0.32469 0.0188962 1.77 1.77
-1 0 63.9879 40.6369 -0.149227 0.143729 1.71 1.77
-1 0 65.9255 44.1127 0.289291 -0.117258 1.77 1.71
-1 0 67.7336 47.6336 -0.166345 0.222916 1.77 1.74
-1 0 67.7041 51.6208 0.10281 0.167398 1.77 1.74
-1 0 66.7523 55.4921 -0.0667825 0.0880884 1.77 1.74
0 0 39.2613 48.6341 -0.115354 -0.233924 1.38 0.99
0 0 40.9467 45.0386 -0.0847061 -0.348866 0.93 1.2
0 0 43.3822 41.878 -0.113021 -0.428526 0.93 1.02
0 0 46.3693 39.2803 -0.043033 -0.298133 1.68 1.08
0 0 50.0429 37.7176 0.0220821 0.0825655 1.14 0.96
0 0 53.9895 37.6001 -0.231044 0.181718 1.14 0.96
0 0 56.5691 40.4931 0.181325 0.141296 1.62 0.96
0 0 59.0729 43.583 -0.071719 0.247478 1.74 0.93
0 0 60.7013 47.2279 -0.0949621 0.17976 1.68 0.96
0 0 61.9324 51.0184 -0.15421 0.183661 1.71 0.96
0 0 46.4526 18.3268 -0.0759013 0.123493 1.23 1.65
0 0 42.4873 18.0682 -0.104715 0.241849 1.77 1.62
0 0 38.595 17.5183 0.0806757 -0.116382 1.77 0.96
0 0 34.724 18.3647 0.235172 0.160934 1.77 1.02
0 0 32.0085 21.275 0.119162 0.00575834 1.77 1.2
0 0 30.1952 24.8297 0.0928893 0.069602 1.77 0.93
0 0 28.2229 28.2525 0.380853 0.0626301 1.77 1.08
0 0 27.3125 32.0836 -0.120741 -0.111497 1.74 1.68
0 0 24.4129 30.4681 0.15161 -0.0337687 1.68 1.02
0 0 13.0371 25.9337 -0.169112 -0.458691 1.77 1.77
0 0 16.7791 25.2757 0.212184 -0.260743 1.68 1.77
0 0 17.6737 28.8883 0.572777 0.160856 1.62 0.93
0 0 16.9527 32.7139 0.112872 0.1547 1.74 1.29
0 0 18.6209 36.326 -0.143293 0.283554 1.68 1.32
0 0 21.7787 38.7782 0.0989812 -0.252484 1.56 1.53
0 0 25.0273 41.1117 0.135833 -0.373971 1.65 1.71
0 0 28.5532 43.0106 0.0556808 -0.111271 1.65 1.77
0 0 31.6228 45.5804 0.124346 -0.000162627 1.62 1.74
0 0 34.2526 48.5798 0.139682 0.109862 1.68 1.77
0 0 32.1632 13.9462 -0.30091 -0.418495 1.77 1.77
0 0 30.535 17.4335 0.280539 0.047311 1.77 1.77
0 0 28.6841 20.965 -0.175575 -0.18065 1.77 1.62
0 0 26.8568 24.5194 0.32292 0.173908 1.77 1.68
0 0 23.7498 27.0296 -0.00418524 -0.175927 1.77 1.77
0 0 21.3931 30.135 0.0233778 -0.112067 1.77 1.77
0 0 22.3109 33.8055 -0.260693 -0.122605 1.77 1.77
0 0 25.6575 35.8583 -0.156828 -0.111208 1.77 1.77
0 0 29.4269 34.847 0.0617349 0.404209 1.77 1.77
0 0 31.8713 31.6977 0.114742 0.240955 1.77 1.77
0 0 33.4428 28.0322 -0.224353 0.0608159 1.65 1.77
0 0 35.2649 24.4981 0.0974871 0.0487707 1.59 1.74
0 1 40.2376 1.27611 -0.0753617 -0.0205626 1.74 1.77
0 0 43.8308 69.551 -0.132992 0.0374836 1.77 1.77
0 0 45.5614 66.0254 -0.311029 0.0154803 1.77 1.77
0 0 47.7493 62.8919 -0.154536 -0.000623711 1.71 1.77
0 0 51.2684 64.338 0.289856 -0.282454 1.26 1.71
0 0 53.537 67.5914 0.30894 -0.373049 1.77 0.93
0 0 57.0105 69.5678 0.351181 -0.683032 1.77 1.05
0 1 59.8303 2.34 -0.0793425 -0.0928287 1.74 1.17
0 1 60.6833 6.22399 -0.592655 -0.214396 1.77 1.77
0 1 59.2129 9.91973 0.127202 -0.0869634 1.68 1.59
0 1 57.395 13.3501 0.142686 0.207007 1.71 1.74
0 0 17.5231 10.8985 0.0335701 -0.210062 1.53 1.71
0 0 14.7286 13.7313 0.0261824 -0.23596 1.71 1.77
0 0 11.8794 16.493 0.303908 0.407503 1.59 1.77
0 0 8.3492 18.3784 -0.142686 0.0317713 1.59 1.77
0 0 4.61055 17.1735 0.110667 -0.353038 1.74 1.71
0 0 0.856918 15.7944 0.0467794 -0.0155619 1.77 1.77
-1 0 67.1094 14.4242 -0.124161 0.221334 1.65 1.77
-1 0 65.7781 17.4831 -0.0436834 -0.14515 1.74 1.77
-1 0 69.6359 17.4723 -0.0169211 -0.0469861 1.59 1.77
0 0 3.50581 18.4598 -0.0470037 -0.0691796 1.71 1.77
0 0 6.09282 21.382 -0.207717 -0.127495 1.77 1.77
0 0 37.0999 50.0065 -0.0764693 -0.0497248 1.59 1.74
0 0 36.1883 46.2818 0.156103 -0.0486041 1.77 1.32
0 0 37.6712 42.6156 -0.0690059 -0.11795 1.65 1.2
0 0 40.1419 39.5138 0.140984 0.196544 1.77 1.14
0 0 43.0658 36.79 0.0645804 0.268985 1.77 0.96
0 0 46.4586 34.6641 -0.0410323 -0.16383 1.77 0.99
0 0 50.2608 33.4166 0.273012 0.302923 1.77 0.99
0 0 54.0696 32.2294 0.0541629 -0.232586 1.68 0.96
0 0 57.8801 32.5281 0.0160151 -0.113814 1.77 1.41
0 0 60.5103 35.4948 0.434231 -0.202678 1.77 1.65
0 0 29.172 16.4659 0.464423 0.0761446 1.77 1.29
0 0 27.5618 20.1012 0.249784 0.183546 1.77 1.26
0 0 25.5894 23.5676 -0.106808 0.0537574 1.77 1.26
0 0 22.5207 26.0803 0.187687 0.30018 1.77 1.47
0 0 20.1681 29.2245 -0.0213366 0.140074 1.74 1.26
0 0 20.0965 33.1375 -0.129743 0.0539051 1.77 1.11
0 0 22.8062 36.0302 -0.0117268 -0.128256 1.77 1.05
0 0 26.2299 38.0538 -0.356355 0.2653 1.77 1.14
0 0 29.8197 39.3715 0.0638801 -0.0838591 1.77 1.53
0 0 32.0153 36.1446 0.0526923 -0.131912 1.71 1.08
0 0 26.021 5.98021 0.0878683 0.273794 1.65 1.77
0 0 22.7992 3.67526 0.155636 0.331775 1.29 1.77
0 0 19.2896 1.76604 0.316852 -0.197009 1.38 1.77
0 0 15.3831 1.29728 0.170047 0.160649 1.41 1.77
0 0 12.2154 3.68101 -0.238201 -0.214735 1.02 1.74
0 0 9.20193 6.18749 -0.105254 0.201203 1.5 1.77
0 0 5.3431 5.61858 0.0370518 0.00277696 1.77 1.77
0 0 1.47184 5.03196 0.0807465 -0.109365 1.77 1.53
-1 0 67.6141 5.79148 0.34916 0.353971 1.77 1.77
-1 0 63.8888 7.24607 0.12327 -0.418931 1.77 1.38
0 0 17.2833 54.7626 0.0834429 -0.649348 1.74 1.23
0 0 13.4431 53.8398 0.0164034 0.789669 1.74 1.08
0 0 9.51262 53.4926 0.109857 -0.0932549 1.77 1.71
0 0 6.81568 55.9377 0.0602737 -0.167669 1.77 1.5
0 0 7.09871 59.9263 0.0737381 0.035221 1.77 1.29
0 0 7.87035 63.8185 -0.503769 0.266271 1.77 1.38
0 0 7.17555 67.6584 0.204628 0.208761 1.77 1.53
0 1 5.13943 1.08579 -0.0446789 -0.162116 1.77 1.65
0 1 2.13107 3.42745 0.0833457 0.01958 1.77 1.77
0 0 68.8528 60.5464 0.326881 0.267018 0.96 1.29
0 0 66.5856 63.7179 0.154036 0.22831 1.05 1.2
0 0 62.7036 63.971 0.181928 -0.101444 1.41 1.29
0 0 60.2056 61.0104 0.539147 0.0937296 1.65 1.44
0 0 60.2331 57.0092 0.242275 0.180801 1.59 1.35
0 0 58.9461 53.2398 -0.317842 0.36793 1.59 1.44
0 0 56.9639 49.7628 -0.256585 0.326617 1.59 1.74
0 0 54.7456 46.4897 0.0345868 0.071472 1.71 1.77
0 0 51.4273 46.999 0.0881559 0.0604359 1.77 1.74
0 0 51.6277 50.9068 0.360774 -0.0391635 1.77 1.77
0 0 52.9547 54.6399 0.311714 -0.0994868 1.74 1.11
0 0 18.9123 13.5222 0.096624 0.0427187 1.77 1.17
0 0 17.5166 17.2705 0.161785 0.159215 1.71 0.93
0 0 14.7164 20.0336 0.143042 0.183993 1.77 1.17
0 0 11.2222 21.8162 -0.241587 -0.200052 1.77 1.2
0 0 10.1823 25.5946 -0.200816 -0.0421896 1.77 1.17
0 0 10.817 29.5372 0.0898807 0.071306 1.71 1.17
0 0 10.5451 33.4895 -0.0281736 -0.0333005 1.77 1.02
0 0 7.79246 36.2557 0.165422 0.277632 1.74 1.59
0 0 16.4189 14.2173 0.00266 0.0906603 1.71 1.71
0 0 13.8489 17.2701 -0.220262 -0.302459 1.5 0.93
0 0 10.2518 19.0165 -0.188552 -0.441486 1.41 1.02
0 0 7.74326 21.999 0.453838 -0.128727 1.77 0.96
0 0 7.63735 25.9853 -0.0799288 -0.0271186 1.77 1.08
0 0 8.42973 29.8989 -0.336271 0.186642 1.56 0.93
0 0 7.26524 33.4232 -0.130673 -0.0337067 1.2 0.93
0 0 4.24512 31.4283 -0.300512 -0.24425 1.05 0.96
0 0 3.19125 27.579 -0.175229 -0.166439 1.5 1.11
0 0 1.63848 23.9575 0.1794 -0.172703 1.56 1.35
0 0 57.8261 15.6203 -0.0619359 0.0404358 1.65 1.77
0 0 53.8841 16.0436 -0.202814 0.275154 1.74 1.77
0 0 49.9111 15.7467 -0.153624 0.0898081 1.77 1.59
0 0 45.94 15.3685 -0.0483797 -0.357506 1.77 1.71
0 0 42.0048 16.0565 -0.00366409 0.0345125 1.77 1.41
0 0 38.0055 16.3021 -0.0877086 -0.0342306 1.77 0.96
0 0 34.0922 17.0587 -0.147234 -0.0353272 1.71 1.02
0 0 31.3611 19.8952 0.234307 0.256805 1.74 1.23
0 0 29.3339 23.3324 -0.509033 -0.120732 1.68 0.96
0 0 27.0779 26.6007 0.12174 0.235946 1.77 1.32
0 0 38.8071 58.6979 0.173124 -0.23318 0.99 1.11
0 0 35.078 57.8955 0.0646697 0.128919 0.93 1.77
0 0 31.2036 57.3185 0.058605 -0.311431 0.93 1.77
0 0 27.4933 58.8102 0.116487 0.0136297 1.02 1.77
0 0 23.8063 57.6652 0.313505 -0.0954334 1.5 1.74
0 0 21.5818 54.3409 -0.126431 0.226048 0.93 1.77
0 0 18.6921 51.6184 -0.0860048 0.158676 1.65 1.68
0 0 15.4711 49.2573 0.088235 -0.0675752 1.74 1.77
0 0 11.838 47.5904 0.0904541 -0.249137 1.74 1.74
0 0 7.90983 47.194 0.0440247 0.0438914 1.77 1.71
0 0 3.95288 47.7623 -0.0528702 -0.0864164 1.77 1.71
-1 0 68.2929 35.8713 -0.976269 0.486382 1.77 1.77
0 0 0.0437514 39.4183 -0.10376 0.0410134 1.77 1.68
0 0 2.72777 42.3006 -0.0324263 0.0821708 1.68 1.77
0 0 6.63495 42.683 0.028118 0.0418139 1.65 1.77
0 0 10.6083 42.234 -0.005431 0.0321495 1.68 1.35
0 0 14.4154 43.3154 -0.26927 0.232104 1.59 1.59
0 0 17.7241 45.5756 -0.178621 0.275537 1.35 1.5
0 0 20.8288 48.0952 -0.170701 0.333022 1.41 1.65
0 0 24.1401 50.3192 0.0170059 0.103302 0.96 1.59
1 -1 12.9043 52.7586 -0.0263988 0.48622 1.53 0.93
1 -1 9.00693 51.9008 0.128386 0.322784 1.77 1.32
1 -1 5.51232 53.5738 -0.0236675 -0.0717212 1.77 1.59
1 -1 5.31668 57.5437 0.184625 0.0302308 1.77 1.5
1 -1 5.58102 61.5345 -0.41106 0.102406 1.77 1.44
1 -1 6.24689 65.4544 -0.293247 0.0569976 1.77 1.65
1 -1 4.59601 69.0709 0.124232 0.167288 1.77 1.71
1 0 1.79833 1.76547 -0.162103 -0.182769 1.77 1.77
0 0 68.3375 3.72129 -0.109463 0.0763031 1.56 1.59
0 0 64.6026 5.08645 -0.195849 -0.0881894 1.77 1.65
0 0 62.0642 7.80743 -0.270731 -0.00299141 1.77 1.74
0 0 37.5205 60.5744 -0.388679 -0.0369837 1.62 1.26
0 0 36.3665 64.2842 -0.17815 -0.19083 1.56 1.56
0 0 33.3777 66.9167 0.342881 0.138541 1.77 1.32
0 1 33.1212 0.800765 0.118697 -0.184417 1.47 1.23
0 1 35.1388 4.2388 -0.0718074 -0.0365169 1.38 1.26
0 1 38.9108 5.35749 -0.102356 0.148713 1.44 1.02
0 1 42.8498 4.82426 0.155349 0.226502 1.05 0.93
0 1 46.649 3.67295 0.0244849 0.158314 1.38 0.99
0 1 50.3759 4.98789 0.349079 -0.556068 1.71 1.11
0 1 52.9524 8.03921 -0.0692897 -0.226508 1.71 1.74
0 0 26.6974 18.9364 0.0465015 0.0359947 1.74 0.93
0 0 24.7993 22.4378 0.283312 0.151012 1.77 1.02
0 0 21.7157 24.8864 0.0350505 -0.0913878 1.77 0.93
0 0 19.2903 27.996 -0.0159539 0.070226 1.77 1.02
0 0 18.2523 31.7975 0.221112 0.103188 1.77 1.02
0 0 19.9594 35.3447 0.0174941 0.288563 1.74 0.93
0 0 23.1346 37.7521 0.154285 0.224506 1.77 0.93
0 0 26.4429 39.992 0.285444 0.158951 1.74 0.93
0 0 30.0048 41.8081 0.250362 0.242025 1.77 1.26
0 0 11.0554 13.8584 -0.0320277 -0.352324 1.2 1.68
0 0 13.1579 10.4958 0.129739 -0.248157 1.08 1.74
0 0 15.8168 7.51278 0.0194202 -0.411657 0.93 1.53
0 0 19.7344 6.89548 0.147264 -0.051906 1.02 1.62
0 0 22.8993 9.20222 0.13557 -0.0120642 0.96 1.05
0 0 22.9963 13.1172 -0.0669817 -0.115475 0.99 1.11
0 0 21.8216 16.9324 -0.158696 -0.0992848 1.14 0.96
0 0 20.1537 20.5674 0.0569846 0.103421 0.96 0.96
0 0 19.1256 24.3941 -0.679654 0.246838 1.5 1.77
0 0 12.9711 0.665755 0.179729 -0.245146 1.65 1.56
0 -1 16.5521 69.3628 0.243317 0.259107 1.5 1.35
0 0 20.3036 0.772765 0.280568 0.192001 1.26 1.29
0 0 23.7706 2.78931 0.133664 0.462526 1.26 1.23
0 0 27.0537 5.04552 0.47996 -0.0930497 1.35 1.62
0 0 28.2475 8.75582 -0.234387 0.11814 1.77 1.77
0 0 26.8361 12.4814 0.0102386 0.304048 1.74 1.14
0 0 24.9794 16.0061 0.308276 0.424283 1.77 1.2
0 0 23.2086 19.5763 -0.392737 -0.00842151 1.68 0.99
0 0 20.5561 22.5383 0.241993 0.47578 1.68 1.23
0 0 38.6865 45.8065 -0.184621 0.00913806 1.74 1.56
0 0 41.077 42.6058 -0.057475 -0.0342646 1.44 1.47
0 0 43.818 39.7114 -0.0711932 -0.22773 1.38 1.14
0 0 47.1773 37.5989 0.0876108 0.111304 1.71 1.41
0 0 50.9081 36.1972 0.0407019 0.443268 1.56 1.35
0 0 54.8821 36.551 -0.127909 0.317011 1.71 0.93
0 0 57.6507 39.3323 0.0881178 -0.104308 1.68 1.29
0 0 60.0976 42.4979 0.0558437 0.0137912 1.77 1.2
0 0 61.8126 46.1146 0.253317 0.0344997 1.77 1.17
0 0 62.9458 49.9499 0.0832195 0.0758397 1.77 1.29
0 0 53.8736 2.60639 -0.0840653 -0.286849 1.53 1.08
0 0 56.4225 5.4154 0.632335 -0.484338 1.68 0.93
0 0 55.2677 9.14692 -0.0894074 -0.30141 1.74 1.05
0 0 51.9406 11.267 0.0645998 -0.0791308 1.59 0.93
0 0 48.1669 10.0803 0.14132 -0.216939 1.71 0.99
0 0 44.2001 9.83911 0.0653891 0.0350797 1.74 0.96
0 0 40.2865 10.5761 0.120089 -0.0939276 1.71 0.96
0 0 36.3329 10.4707 0.0860717 -0.190693 1.68 0.93
0 0 32.3842 9.87664 0.022213 0.319626 1.74 0.93
0 0 49.5168 21.292 -0.0949951 -0.0212377 1.05 1.05
0 0 45.6292 22.0825 -0.148127 -0.343733 1.59 1.38
0 0 41.8477 21.2017 -0.312136 0.0628247 1.71 1.56
0 0 38.0328 20.2068 -0.224443 -0.197223 1.77 1.77
0 0 34.7482 22.3049 0.313528 0.548783 1.77 1.77
0 0 32.9102 25.8405 -0.0391896 0.370533 1.77 1.77
0 0 30.9833 29.3267 -0.284297 0.232685 1.77 1.77
0 0 29.0233 32.6952 -0.207072 0.179486 1.62 1.77
0 0 25.5304 34.0635 -0.226681 -0.192299 1.74 1.77
0 0 23.0469 31.1679 0.18951 -0.049279 1.59 1.77
0 0 37.9497 69.3061 -0.632 -0.128149 1.32 1.77
0 0 41.2426 67.0371 0.175387 0.485255 1.5 1.77
0 0 43.0018 63.4478 -0.361871 -0.213631 1.77 1.53
0 0 45.5246 60.4501 -0.145834 0.106131 1.38 1.05
0 0 48.4184 57.7023 0.0842905 0.603951 0.99 1.74
0 0 51.4381 59.4358 0.0693117 0.0342552 1.23 0.96
0 0 48.3941 61.0503 -0.0416665 -0.663311 1.62 1.77
0 0 45.0444 62.8842 0.257295 0.166058 1.59 1.74
0 0 43.5218 66.5686 0.123641 0.0423422 1.77 1.77
0 0 40.731 69.1788 0.256161 0.480425 1.68 1.77
-1 0 41.8417 34.5422 0.163684 0.0137816 1.71 0.96
-1 0 45.1235 32.2761 0.0784954 0.333374 1.77 1.35
-1 0 48.9077 31.0061 -0.14486 0.155933 1.74 1.14
-1 0 52.7732 29.9315 -0.0671984 -0.311169 1.77 1.32
-1 0 56.6487 28.9341 -0.118763 -0.524131 1.77 1.41
-1 0 60.3385 27.529 0.131059 0.0578416 1.68 1.2
-1 0 64.1315 26.3933 0.274538 -0.651524 1.29 0.93
-1 0 67.8323 27.1775 -0.425754 0.426886 1.53 1.74
-1 0 69.5519 30.7641 -0.26823 -0.0531633 1.08 1.02
0 0 1.13569 34.4114 -0.21956 0.0851192 1.2 1.23
0 0 2.36682 38.1959 0.609402 -0.106916 1.26 1.2
0 0 16.1502 53.0082 0.0548164 0.108672 1.26 0.93
0 0 12.5203 51.3374 -0.0880424 -0.02452 1.53 0.96
0 0 8.64271 50.473 -0.0588933 0.242389 1.77 1.41
0 0 4.92603 51.5872 0.0590528 -0.0275267 1.77 1.44
0 0 3.76349 55.3343 -0.0629568 0.063914 1.77 1.23
0 0 3.74184 59.3306 -0.143586 0.266227 1.77 1.35
0 0 4.3979 63.2786 0.096249 0.334371 1.77 1.65
0 0 3.74456 67.135 0.155199 0.21655 1.71 1.71
-1 0 69.208 6.70832 0.088112 0.48962 1.41 1.77
0 0 3.20761 6.69867 0.0973945 -0.373068 1.77 1.77
0 0 6.96989 8.06835 0.0170845 0.128204 1.77 1.77
0 0 10.8268 7.30723 0.0721035 0.000914048 1.71 1.68
0 0 13.7027 4.54794 -0.0129401 -0.087662 1.68 1.77
0 0 17.1954 2.87615 0.115665 -0.472369 1.77 1.77
0 0 20.843 4.4933 0.284392 -0.245946 1.44 1.77
0 0 24.3477 6.39262 0.0619228 0.124192 1.71 1.47
0 0 26.1136 9.9474 -0.188419 0.0889358 1.77 1.71
0 0 64.5226 23.2359 0.206691 -0.480246 1.77 1.77
0 0 60.6076 23.9507 0.368972 0.362383 1.77 1.74
0 0 56.9348 25.5203 0.111211 -0.109441 1.74 1.74
0 0 53.0217 26.3507 0.0878814 0.000781909 1.77 1.77
0 0 49.2575 27.6967 0.0590342 -0.0174083 1.74 1.77
0 0 45.4078 28.7858 0.0714744 0.0285951 1.77 1.74
0 0 41.8398 30.4903 0.23669 0.14374 1.77 1.77
0 0 39.2066 33.3929 0.00149646 -0.106411 1.77 1.74
0 0 37.6857 37.0446 0.225467 -0.0791991 1.77 1.77
0 0 45.1138 19.9958 -0.0182034 -0.0748242 0.96 1.44
0 0 49.0328 19.193 0.0581331 0.332555 1.02 1.71
0 0 53.0262 19.0034 -0.113022 0.596192 0.96 0.99
0 0 57.0228 19.1542 -0.169342 0.0133269 0.96 1.23
0 0 60.671 17.6513 -0.438662 -0.212673 1.29 1.62
0 0 63.1257 14.5096 -0.12077 -0.00787409 1.02 1.17
0 0 66.0596 11.944 -0.046215 -0.0355927 0.99 0.93
0 0 69.9497 12.2453 -0.153778 -0.0821175 1.02 1.29
1 0 3.85123 13.0482 0.0536524 -0.313056 1.05 1.29
1 0 7.74198 13.9371 0.0605083 0.0681096 0.93 1.08
0 0 40.3218 41.0796 -0.293285 -0.200637 1.59 0.93
0 0 43.2485 38.3516 -0.136307 -0.260542 1.74 0.93
0 0 46.5769 36.1748 0.126948 -0.0167104 1.74 1.02
0 0 50.3153 34.8045 0.137556 -0.0420002 1.77 1.02
0 0 54.0881 33.5119 0.0414958 -0.0406246 1.77 0.96
0 0 57.7679 34.5378 0.0525001 0.0160645 1.71 1.38
0 0 60.066 37.7917 -0.37968 0.280346 1.41 1.53
0 0 62.5119 40.936 -0.010333 0.0828354 1.77 1.44
0 0 64.3948 44.4603 0.407505 -0.140617 1.77 1.29
0 0 66.0635 48.0872 0.102977 -0.116696 1.77 1.74
0 0 30.7881 55.1802 -0.218762 0.0862776 1.53 1.77
0 0 34.6815 55.4465 0.0591186 -0.273738 1.32 1.77
0 0 38.588 56.2625 0.0117957 0.12256 1.47 1.77
0 0 42.1988 54.5663 -0.196159 -0.31172 1.56 1.74
0 0 43.7116 50.9276 -0.0749226 -0.158304 1.77 1.77
0 0 44.5618 47.0858 -0.450997 -0.313087 1.77 1.77
0 0 46.7101 43.7217 0.173782 0.07812 1.65 1.77
0 0 49.4556 40.8829 -0.161889 -0.36289 1.44 1.74
0 0 53.3734 40.8375 -0.149295 0.276738 1.74 1.77
0 0 56.7061 42.9355 -0.140556 0.0149388 1.77 1.38
0 0 58.9243 46.2639 -0.219604 0.140247 1.38 1.23
0 0 35.4171 44.584 -0.27809 -0.0718214 1.77 1.77
0 0 36.7837 40.8249 -0.36967 -0.155857 1.71 1.74
0 0 39.7336 38.1554 -0.230608 -0.20171 1.74 1.74
0 0 42.7922 35.623 -0.234418 -0.270754 1.71 1.47
0 0 46.0615 33.354 0.0626889 0.39255 1.77 0.93
0 0 49.8443 32.1141 -0.152351 -0.163303 1.71 1.05
0 0 53.6698 30.9438 0.0201585 0.356497 1.77 1.02
0 0 57.6259 30.3673 0.053356 0.305102 1.77 1.41
0 0 61.2571 28.7225 -0.100399 -0.195574 1.59 1.38
0 0 64.9943 27.42 -0.000946347 0.0528329 1.11 1.05
0 0 28.1757 37.1358 -0.130424 0.210504 1.77 1.11
0 0 31.3485 34.7981 0.126159 0.272975 1.68 1.32
0 0 33.6902 31.5754 -0.258997 -0.0161397 1.44 1.32
0 0 35.443 27.9976 -0.0955272 0.0357505 1.77 1.59
0 0 37.1673 24.4004 -0.21436 -0.041602 1.14 1.68
0 0 40.5082 24.4501 -0.680545 -0.0567991 1.38 1.77
0 0 38.3159 27.4796 0.0288996 0.0170969 1.41 0.99
0 0 35.6972 30.4289 0.326651 0.0376301 1.47 0.96
0 0 33.9946 34.0556 -0.144834 -0.0766459 1.62 0.99
0 0 32.9466 37.9135 -0.0203355 0.106041 1.59 0.93
0 0 31.3665 41.559 0.0131055 0.201611 1.77 1.35
0 0 16.1767 16.8077 0.16026 0.103632 1.74 0.93
0 0 13.0668 19.228 0.0912965 -0.169108 1.68 0.99
0 0 9.80349 21.3755 0.129409 -0.119892 1.77 1.14
0 0 8.79675 25.1998 -0.0985639 -0.147638 1.77 1.08
0 0 9.57652 29.1259 0.374555 -0.273631 1.77 0.93
0 0 9.42933 33.0884 0.115075 -0.119496 1.71 0.93
0 0 6.16499 34.7888 0.0136921 0.435573 1.68 1.23
0 0 3.24282 32.2695 0.199672 -0.010544 1.56 1.71
0 0 2.06605 28.4459 -0.15346 0.0382075 1.77 1.71
0 0 0.15768 24.9821 0.154953 -0.170033 1.77 1.77
-1 0 66.9283 22.7965 -0.012678 -0.0254821 1.77 1.77
-1 0 63.1382 21.5804 -0.0444725 0.328171 1.77 1.74
0 0 61.1226 54.799 -0.289146 0.181975 0.93 0.99
0 0 59.2488 51.2671 0.161613 -0.0148952 1.02 0.93
0 0 57.4667 47.7043 -0.366358 0.258659 1.02 1.14
0 0 54.9229 44.6301 0.071388 -0.189092 1.11 1.41
0 0 51.2026 45.0763 -0.184367 -0.358237 0.99 1.14
0 0 49.6097 48.7176 -0.219518 -0.20056 1.68 1.47
0 0 49.9919 52.6576 0.187083 -0.148107 1.74 1.68
0 0 52.3615 55.7138 0.169137 -0.543989 1.77 1.05
0 0 54.0662 59.2095 -0.141881 -0.132897 1.77 1.41
0 0 54.1812 63.2099 -0.444802 0.0403209 1.77 1.2
0 0 56.3693 66.5157 -0.39631 0.396054 1.68 0.93
0 0 22.5783 62.0731 -0.158551 0.183646 1.56 1.53
0 0 19.2573 59.9042 -0.323625 -0.172335 1.71 1.38
0 0 16.2048 57.3571 0.0833727 -0.300246 1.77 1.14
0 0 12.2717 56.7877 0.000100751 -0.549468 1.77 1.44
0 0 10.0401 59.6902 -0.532867 -0.160284 1.77 1.14
0 0 10.6426 63.6265 -0.445624 0.205925 1.77 1.08
0 0 11.102 67.5899 0.522369 0.228134 1.77 1.5
0 1 8.84483 0.842902 0.221645 0.363963 1.77 1.65
0 0 22.8152 50.8016 -0.189402 0.0824063 1.14 1.08
0 0 19.4522 48.6602 -0.164091 0.255642 1.29 1.14
0 0 15.9014 46.8311 -0.140629 0.40235 0.96 0.93
0 0 12.4983 44.7267 0.243278 -0.529889 1.08 1.02
0 0 8.4939 44.6299 -0.0914383 -0.168735 0.96 1.17
0 0 4.51058 44.8729 -0.181847 0.353318 0.96 1.35
0 0 0.632652 44.0118 -0.324962 0.441355 1.11 1.74
-1 0 68.0658 41.0476 -0.123561 0.124201 1.44 1.68
-1 0 66.1585 37.5463 -0.474238 0.31743 1.23 1.56
-1 0 63.9845 34.2553 0.963961 -0.643758 1.62 1.77
0 0 54.4407 48.5573 -0.480618 0.247875 1.77 1.77
0 0 55.2885 52.3061 0.484081 -0.161595 1.77 1.77
0 0 56.5695 56.0754 0.098271 -0.263969 1.74 1.77
0 0 56.7985 60.0249 0.217536 -0.14463 1.77 1.77
0 0 57.7494 63.8704 -0.291221 0.257489 1.77 1.77
0 0 60.6783 66.5556 0.127369 -0.101252 1.77 1.77
0 0 63.6459 69.2184 0.116046 -0.164661 1.77 1.77
0 0 67.2997 69.3123 0.166734 0.429766 1.62 1.77
0 0 69.0607 65.7456 -0.0941219 0.0234526 1.77 1.77
1 0 1.20445 62.3781 0.318758 0.142964 1.05 1.77
1 0 7.65659 48.9114 -0.253253 -0.559022 1.77 1.5
1 0 3.81383 49.8851 -0.184358 -0.236847 1.77 1.5
1 0 2.36187 53.5543 0.0412056 -0.0344635 1.77 1.41
1 0 2.09157 57.5398 -0.654544 -0.197355 1.77 1.74
1 0 2.33213 61.5194 0.136786 -0.157914 1.77 1.59
1 0 2.69663 65.5103 0.524576 -0.0623578 1.74 1.5
1 0 0.833247 69.033 0.121448 0.129755 1.35 1.62
0 1 68.4878 2.21038 -0.00223751 0.189359 1.11 1.2
0 1 64.6959 3.41205 0.197683 0.630943 1.5 1.29
0 0 52.1889 43.1379 -0.142903 -0.0248307 0.96 0.96
0 0 49.501 46.0306 -0.0766011 -0.00989021 0.99 0.93
0 0 47.9281 49.6925 0.01503 -0.16637 1.02 1.17
0 0 48.9256 53.5633 0.00830476 -0.206373 1.5 1.23
0 0 51.0665 56.6914 0.0548003 -0.441071 1.71 1.32
0 0 52.71 60.1613 0.868792 -0.282808 1.68 1.08
0 0 52.8394 64.1064 -0.35486 -0.0187832 1.77 1.29
0 0 55.2288 67.2662 -0.219521 0.194365 1.65 0.99
0 0 58.8296 68.9944 0.233058 -0.25537 1.74 1.56
0 1 61.3851 2.04953 -0.0589201 0.0880451 1.77 1.56
0 -1 49.9778 68.7783 -0.267628 0.254631 1.77 1.35
0 0 53.0334 0.77318 0.0217362 0.045037 1.71 1.05
0 0 56.5477 2.60455 0.0728944 -0.0984917 1.68 0.93
0 0 57.7601 6.29396 0.321903 -0.164123 1.77 1.02
0 0 56.372 10.0141 -0.178913 -0.22602 1.77 1.29
0 0 53.2513 12.4229 0.133623 0.187818 1.74 1.32
0 0 49.285 12.7285 0.00588399 -0.491481 1.74 0.93
0 0 45.3031 12.4204 -0.0029657 -0.298723 1.77 0.99
0 0 41.37 13.0648 0.0110118 0.440952 1.77 1.32
0 0 37.39 13.3869 -0.0310356 0.0336531 1.77 1.11
0 0 33.4329 12.8042 0.0273045 -0.135619 1.74 1.74
0 0 29.7198 13.3183 -0.044195 -0.366433 1.77 1.77
0 0 46.7369 17.1519 0.122275 -0.110423 1.23 1.74
0 0 50.7023 17.4541 -0.0442436 0.24911 1.74 1.77
0 0 54.671 17.8002 -0.058606 0.08944 1.65 1.74
0 0 58.6067 17.2463 -0.0649497 -0.109456 1.77 1.77
0 0 61.3557 14.3614 0.107875 -0.073712 1.65 1.77
0 0 63.9689 11.3297 0.320721 0.133117 1.65 1.68
0 0 67.7395 10.3187 0.0183667 -0.14102 1.74 1.74
1 0 1.60203 11.3266 -0.0413578 -0.0881968 1.65 1.77
1 0 5.52032 12.0143 -0.00293237 -0.280283 1.56 1.65
1 0 9.42882 12.5785 -0.135417 -0.701631 1.74 1.77
0 0 59.8181 22.5386 -0.0902675 0.411414 1.77 1.74
0 0 56.0731 23.9125 -0.0995029 0.188019 1.74 1.71
0 0 52.2007 24.8752 -0.0493704 0.0244835 1.77 1.68
0 0 48.4791 26.3236 -0.09651 -0.434187 1.77 1.62
0 0 44.5946 27.2614 0.202191 0.365869 1.77 1.68
0 0 41.0042 28.9802 -0.0539013 -0.0743978 1.77 1.68
0 0 38.1373 31.7457 -0.155376 0.012085 1.77 1.44
0 0 36.3329 35.3036 0.0866552 0.211708 1.77 1.68
0 0 35.5262 39.2121 -0.222334 0.0523348 1.74 1.74
0 0 34.3233 43.0204 0.227203 0.0804944 1.77 1.71
0 0 52.144 38.4994 -0.175107 -0.0600256 1.11 1.77
0 0 48.3473 39.684 -0.166929 -0.156114 1.41 1.77
0 0 45.5057 42.4383 0.0638907 0.0204944 1.41 1.77
0 0 43.2703 45.7559 -0.236584 -0.297362 1.71 1.74
0 0 41.9337 49.4753 0.32433 -0.150085 1.68 1.77
0 0 40.9865 53.2394 -0.270613 -0.249601 1.74 1.77
0 0 37.3185 54.4658 -0.180468 0.316208 1.56 1.77
0 0 33.4706 53.4032 0.0745068 -0.66486 1.59 1.74
0 0 29.6764 53.9711 0.136418 0.537997 1.77 1.77
0 1 47.4085 5.15368 -0.0754515 0.542985 1.2 1.68
0 1 43.5319 5.61546 -0.0192842 0.0528486 0.93 1.56
0 1 39.6215 6.50055 0.0107572 -0.197137 0.93 1.35
0 1 35.6675 5.98217 0.104129 0.0301345 1.05 1.47
0 1 32.1361 4.22804 0.0765491 0.102942 1.2 1.71
0 1 30.0108 0.851941 0.0811529 -0.0048265 1.65 1.77
0 0 26.5743 68.9098 -0.151042 0.128816 1.77 1.77
0 0 24.3349 65.7106 -0.111788 -0.188042 1.74 1.77
0 0 20.9755 63.6073 -0.396055 0.0909993 1.74 1.68
0 0 15.5361 11.0779 -0.0568571 -0.169546 0.96 1.2
0 0 18.8056 9.02878 0.0866414 -0.167465 1.05 1.14
0 0 20.7506 12.0421 -0.352391 -0.0425483 1.77 1.35
0 0 19.353 15.7706 0.399543 0.20268 1.65 1.38
0 0 17.76 19.4276 -0.0173154 -0.00886669 1.71 1.74
0 0 14.5066 21.5238 0.033766 -0.31624 1.77 1.77
0 0 11.6468 23.9823 0.289642 0.0511284 1.77 1.77
0 0 12.0616 27.9356 0.402105 -0.0680582 1.77 1.71
0 0 12.2981 31.9215 0.178316 -0.132426 1.74 1.74
0 0 10.9069 35.6123 -0.51292 -0.368666 1.77 1.77
0 0 45.1442 56.1704 0.223914 -0.190198 1.77 1.68
0 0 42.2298 58.9068 -0.0632004 -0.221362 1.77 1.77
0 0 40.3962 62.3529 0.322376 -0.0258554 1.77 1.77
0 0 39.3737 66.0766 0.476313 0.325263 1.74 1.65
0 0 36.2267 68.5343 -0.00981373 0.24628 1.77 1.77
0 1 37.2927 2.04286 0.0833368 0.225203 1.77 1.77
0 1 41.1832 2.53212 0.11492 0.128996 1.77 1.71
0 1 44.8517 0.939767 0.0746509 -0.167622 1.77 1.77
0 0 46.9402 67.6182 0.377156 -0.125846 1.71 1.74
0 -1 49.2976 64.5291 0.527025 0.240198 1.65 1.2
0 -1 48.4559 68.4218 0.0977294 0.0637704 1.77 1.32
0 0 50.247 1.72835 0.330028 -0.536654 1.77 1.29
0 0 53.5904 3.90385 -0.223393 0.081118 1.65 0.93
0 0 54.9243 7.37797 -0.205655 -0.068046 1.47 0.96
0 0 51.8974 9.87267 0.00805792 -0.361959 1.68 1.02
0 0 48.1153 8.69076 0.20577 -0.156524 1.77 0.93
0 0 44.2435 8.36209 0.187323 -0.0236253 1.77 0.93
0 0 40.3199 9.11146 -0.125828 -0.69869 1.68 0.96
0 0 36.3762 9.20985 -0.0706078 0.062858 1.77 1.05
0 0 32.446 8.52095 -0.074664 -0.171226 1.77 0.93
0 0 2.90211 36.4036 -0.182939 0.300402 1.35 1.44
0 0 5.66146 39.2437 -0.322002 0.80372 1.77 1.32
0 0 9.65189 39.367 -0.0514518 0.588722 1.59 1.08
0 0 13.5693 39.5484 -0.234204 0.237912 1.71 1.29
0 0 16.9051 41.7228 -0.0827926 -0.0221043 1.71 1.23
0 0 20.2495 43.8936 -0.497697 0.354351 1.68 1.11
0 0 23.4595 46.2434 -0.089422 -0.257953 1.77 1.26
0 0 26.7501 48.5127 -0.336131 0.125679 1.77 1.11
0 0 28.8359 51.8019 0.0280078 -0.0118295 1.77 1.41
0 0 27.2301 55.4495 -0.307908 -0.171992 1.71 1.77
-1 0 65.6729 33.7171 0.167378 -0.0498014 1.26 1.35
-1 0 67.422 37.3129 -0.736844 0.357763 1.26 1.44
-1 0 69.308 40.8348 -0.265576 0.0889354 1.08 1.35
0 0 2.14032 43.5802 -0.132497 0.0289419 0.99 1.17
0 0 6.09254 44.0256 0.0749083 0.223392 0.93 0.99
0 0 10.0655 43.5472 0.168681 0.221074 1.05 1.08
0 0 13.9232 44.3781 0.378053 -0.050084 0.96 0.96
0 0 17.2854 46.5458 0.106709 0.478658 0.93 0.93
0 0 8.99206 40.7135 -0.077181 0.00220166 1.05 1.77
0 0 5.01498 41.0733 0.14994 -0.136225 0.93 1.74
0 0 1.65644 39.1392 0.584461 -0.359132 0.93 1.77
0 0 0.157247 35.4256 1.40166 -0.752111 1.02 1.77
-1 0 68.4963 31.796 -0.600748 -0.0756412 1.5 1.74
-1 0 66.061 28.8702 0.109411 -0.155863 1.2 1.62
-1 0 62.2517 29.6506 -0.0198622 -0.303564 0.96 1.56
-1 0 58.7931 31.539 0.277222 0.506683 1.23 1.77
0 0 20.3527 67.2464 -0.0366715 -0.349253 1.77 1.74
0 0 16.8357 65.3843 0.145519 -0.228221 1.77 1.77
0 0 16.2913 61.4888 -0.0284893 -0.121507 1.77 1.77
0 0 13.1718 60.7248 0.127891 -0.0587331 1.77 1.77
0 0 14.06 64.5017 -0.014557 0.0310082 1.77 1.77
0 0 16.4572 67.5943 0.0100997 0.239213 1.77 1.77
0 0 20.2274 68.8976 0.181859 0.0569378 1.74 1.74
0 0 24.179 69.4302 0.143393 0.130803 1.71 1.77
0 1 27.7488 1.21857 0.249765 -0.185748 1.74 1.74
0 1 30.1338 4.38745 0.021359 0.192231 1.65 1.74
0 1 30.7043 5.20826 -0.33181 0.606557 1.68 1.68
#number of sheets
80
#natural spring lengths9.9999999999998535e-01 2
1 2
1 2
1 2
1 2
1 2
1 2
1 2
1 2
1 2
1 2
1 2
1 2
1 2
1 2
1 2
1 2
1 2
1 2
1 2
1 2
1 2
1 2
1 2
1 2
1 2
1 2
1 2
1 2
1 2
1 2
1 2
1 2
1 2
1 2
1 2
1 2
1 2
1 2
1 2
1 2
1 2
1 2
1 2
1 2
1 2
1 2
1 2
1 2
1 2
1 2
1 2
1 2
1 2
1 2
1 2
1 2
1 2
1 2
1 2
1 2
1 2
1 2
1 2
1 2
1 2
1 2
1 2
1 2
1 2
1 2
1 2
1 2
1 2
1 2
1 2
1 2
1 2
1 2
1 2